num	date	subjStartTime	trialNum	stimName	mirrored	inView	response	rt
4	2021.11.25	21:46:08	1	inanimate/trails.jpg	true	true	r6	0.135
4	2021.11.25	21:46:08	2	inanimate/living.jpg	true	true	r4	0.331
4	2021.11.25	21:46:08	3	inanimate/pillow.jpg	false	true	r4	0.227
4	2021.11.25	21:46:08	4	inanimate/gentle.jpg	true	true	r4	0.31
4	2021.11.25	21:46:08	5	social/desert.jpg	false	true	r4	0.384
4	2021.11.25	21:46:08	6	social/veranda.jpg	false	true	r4	0.692
4	2021.11.25	21:46:08	7	inanimate/glittering.jpg	true	true	r4	0.342
4	2021.11.25	21:46:08	8	inanimate/drummers.jpg	false	true	r4	0.454
4	2021.11.25	21:46:08	9	inanimate/inhabited.jpg	false	true	r4	0.524
4	2021.11.25	21:46:08	10	social/discoloured.jpg	false	true	r4	0.314
4	2021.11.25	21:46:08	11	social/uneven.jpg	false	true	r4	1.251
4	2021.11.25	21:46:08	12	inanimate/mustered.jpg	true	true	r4	0.075
4	2021.11.25	21:46:08	13	inanimate/retrial.jpg	false	true	r4	0.381
4	2021.11.25	21:46:08	14	social/glittering.jpg	true	true	r4	0.177
4	2021.11.25	21:46:08	15	social/wave.jpg	false	true	r4	0.489
4	2021.11.25	21:46:08	16	social/suction.jpg	true	true	r4	0.567
4	2021.11.25	21:46:08	17	inanimate/nicotine.jpg	true	true	r4	0.127
4	2021.11.25	21:46:08	18	social/allotments.jpg	false	true	r5	0.431
4	2021.11.25	21:46:08	19	social/ethnic.jpg	true	true	r4	0.412
4	2021.11.25	21:46:08	20	social/aristocracy.jpg	false	true	r5	0.09
4	2021.11.25	21:46:08	21	inanimate/lager.jpg	false	true	r5	0.542
4	2021.11.25	21:46:08	22	social/wanderer.jpg	true	true	r4	0.674
4	2021.11.25	21:46:08	23	inanimate/eroding.jpg	true	true	r4	0.687
4	2021.11.25	21:46:08	24	inanimate/wanderer.jpg	false	true	r5	0.076
4	2021.11.25	21:46:08	25	social/restraint.jpg	true	true	r4	0.138
4	2021.11.25	21:46:08	26	inanimate/chopping.jpg	true	true	r4	0.747
4	2021.11.25	21:46:08	27	social/aprons.jpg	true	true	r4	0.063
4	2021.11.25	21:46:08	28	inanimate/manufacturing.jpg	true	true	r4	0.059
4	2021.11.25	21:46:08	29	inanimate/enlightened.jpg	false	true	r4	0.857
4	2021.11.25	21:46:08	30	inanimate/solids.jpg	false	true	r5	0.176
4	2021.11.25	21:46:08	31	inanimate/aristocracy.jpg	true	true	r4	0.075
4	2021.11.25	21:46:08	32	social/wear.jpg	true	true	r4	0.201
4	2021.11.25	21:46:08	33	inanimate/icelandic.jpg	true	true	r5	0.201
4	2021.11.25	21:46:08	34	social/simulators.jpg	true	true	r5	0.495
4	2021.11.25	21:46:08	35	social/fountain.jpg	true	true	r3	0.026
4	2021.11.25	21:46:08	36	social/castor.jpg	true	true	r5	0.12
4	2021.11.25	21:46:08	37	inanimate/detecting.jpg	false	true	r5	0.316
4	2021.11.25	21:46:08	38	social/trails.jpg	false	true	r5	0.751
4	2021.11.25	21:46:08	39	inanimate/veranda.jpg	true	true	r5	0.459
4	2021.11.25	21:46:08	40	inanimate/irretrievably.jpg	false	true	r5	0.2
4	2021.11.25	21:46:08	41	social/jews.jpg	true	true	r5	5.504
4	2021.11.25	21:46:08	42	social/tides.jpg	true	true	r5	0.249
4	2021.11.25	21:46:08	43	social/irretrievably.jpg	true	true	r5	0.31
4	2021.11.25	21:46:08	44	social/resigned.jpg	false	true	r5	0.249
4	2021.11.25	21:46:08	45	inanimate/car.jpg	true	true	r5	0.777
4	2021.11.25	21:46:08	46	inanimate/undercarriage.jpg	false	true	r5	0.498
4	2021.11.25	21:46:08	47	social/mustered.jpg	true	true	r5	0.324
4	2021.11.25	21:46:08	48	inanimate/uneven.jpg	true	true	r5	0.378
4	2021.11.25	21:46:08	49	social/detecting.jpg	false	true	r6	2.239
4	2021.11.25	21:46:08	50	social/inmates.jpg	true	true	r5	2.072
4	2021.11.25	21:46:08	51	inanimate/russet.jpg	false	true	r5	0.154
4	2021.11.25	21:46:08	52	social/icelandic.jpg	false	true	r5	0.423
4	2021.11.25	21:46:08	53	social/fattening.jpg	false	true	r5	0.394
4	2021.11.25	21:46:08	54	social/infected.jpg	false	true	r5	0.298
4	2021.11.25	21:46:08	55	inanimate/discoloured.jpg	false	true	r5	0.578
4	2021.11.25	21:46:08	56	social/graduated.jpg	true	true	r5	0.468
4	2021.11.25	21:46:08	57	inanimate/suction.jpg	false	true	r4	0.042
4	2021.11.25	21:46:08	58	social/burials.jpg	true	true	r4	0.491
4	2021.11.25	21:46:08	59	social/eroding.jpg	true	true	r5	0.399
4	2021.11.25	21:46:08	60	social/wharf.jpg	true	true	r5	0.404
4	2021.11.25	21:46:08	61	inanimate/knitters.jpg	true	true	r5	0.142
4	2021.11.25	21:46:08	62	inanimate/desert.jpg	false	true	r5	0.026
4	2021.11.25	21:46:08	63	social/stagecoach.jpg	false	true	r5	0.059
4	2021.11.25	21:46:08	64	inanimate/droning.jpg	true	true	r5	0.047
4	2021.11.25	21:46:08	65	inanimate/wharf.jpg	true	true	r5	0.063
4	2021.11.25	21:46:08	66	social/international.jpg	true	true	r5	0.091
4	2021.11.25	21:46:08	67	social/whistle.jpg	false	true	r5	0.074
4	2021.11.25	21:46:08	68	inanimate/water.jpg	true	true	r4	0.153
4	2021.11.25	21:46:08	69	social/living.jpg	true	true	r5	0.543
4	2021.11.25	21:46:08	70	inanimate/inmates.jpg	false	true	r5	0.365
4	2021.11.25	21:46:08	71	inanimate/graduated.jpg	false	true	r5	0.252
4	2021.11.25	21:46:08	72	inanimate/fattening.jpg	true	true	r4	1.022
4	2021.11.25	21:46:08	73	social/vanilla.jpg	false	true	r5	0.482
4	2021.11.25	21:46:08	74	social/drummers.jpg	true	true	r5	0.323
4	2021.11.25	21:46:08	75	social/runaway.jpg	false	true	r5	0.888
4	2021.11.25	21:46:08	76	social/cramming.jpg	false	true	r5	0.849
4	2021.11.25	21:46:08	77	inanimate/tides.jpg	false	true	r5	0.448
4	2021.11.25	21:46:08	78	inanimate/projecting.jpg	true	true	r5	0.266
4	2021.11.25	21:46:08	79	inanimate/contractor.jpg	true	true	r5	0.214
4	2021.11.25	21:46:08	80	social/droning.jpg	false	true	r5	0.203
4	2021.11.25	21:46:08	81	inanimate/runaway.jpg	true	true	r5	0.208
4	2021.11.25	21:46:08	82	inanimate/observational.jpg	true	true	r5	0.095
4	2021.11.25	21:46:08	83	social/undercarriage.jpg	true	true	r5	0.057
4	2021.11.25	21:46:08	84	social/smallholders.jpg	true	true	r5	0.102
4	2021.11.25	21:46:08	85	social/manufacturing.jpg	false	true	r5	0.09
4	2021.11.25	21:46:08	86	social/water.jpg	true	true	r5	0.09
4	2021.11.25	21:46:08	87	inanimate/infected.jpg	false	true	r5	0.092
4	2021.11.25	21:46:08	88	inanimate/straw.jpg	false	true	r4	0.122
4	2021.11.25	21:46:08	89	social/receptions.jpg	false	true	r4	0.041
4	2021.11.25	21:46:08	90	social/altars.jpg	false	true	r3	0.09
4	2021.11.25	21:46:08	91	social/deteriorating.jpg	true	true	r3	0.048
4	2021.11.25	21:46:08	92	inanimate/simulators.jpg	true	true	r3	0.043
4	2021.11.25	21:46:08	93	inanimate/clambering.jpg	true	true	r3	0.091
4	2021.11.25	21:46:08	94	inanimate/departmental.jpg	false	true	r4	0.202
4	2021.11.25	21:46:08	95	social/budding.jpg	true	true	r4	0.054
4	2021.11.25	21:46:08	96	inanimate/allotments.jpg	true	true	r4	0.043
4	2021.11.25	21:46:08	97	inanimate/buses.jpg	false	true	r4	0.108
4	2021.11.25	21:46:08	98	social/straw.jpg	false	true	r4	0.126
4	2021.11.25	21:46:08	99	inanimate/smallholders.jpg	true	true	r4	0.523
4	2021.11.25	21:46:08	100	inanimate/stagecoach.jpg	false	true	r5	0.574
4	2021.11.25	21:46:08	101	inanimate/fragrant.jpg	false	true	r4	0.364
4	2021.11.25	21:46:08	102	social/departmental.jpg	false	true	r5	0.122
4	2021.11.25	21:46:08	103	social/buses.jpg	false	true	r5	0.465
4	2021.11.25	21:46:08	104	inanimate/wiry.jpg	false	true	r5	0.376
4	2021.11.25	21:46:08	105	inanimate/altars.jpg	false	true	r5	0.357
4	2021.11.25	21:46:08	106	social/car.jpg	true	true	r5	0.089
4	2021.11.25	21:46:08	107	social/mastering.jpg	false	true	r5	0.063
4	2021.11.25	21:46:08	108	inanimate/deteriorating.jpg	false	true	r4	0.043
4	2021.11.25	21:46:08	109	social/enlightened.jpg	false	true	r3	0.603
4	2021.11.25	21:46:08	110	social/observational.jpg	false	true	r4	0.091
4	2021.11.25	21:46:08	111	social/contractor.jpg	false	true	r5	1.149
4	2021.11.25	21:46:08	112	inanimate/international.jpg	false	true	r4	0.219
4	2021.11.25	21:46:08	113	inanimate/mastering.jpg	true	true	r3	0.107
4	2021.11.25	21:46:08	114	inanimate/vocals.jpg	false	true	r4	0.045
4	2021.11.25	21:46:08	115	inanimate/depressing.jpg	true	true	r4	0.491
4	2021.11.25	21:46:08	116	inanimate/cramming.jpg	false	true	r5	0.122
4	2021.11.25	21:46:08	117	social/diamonds.jpg	false	true	r5	0.462
4	2021.11.25	21:46:08	118	inanimate/castor.jpg	true	true	r5	0.239
4	2021.11.25	21:46:08	119	inanimate/diamonds.jpg	false	true	r5	0.334
4	2021.11.25	21:46:08	120	social/saloon.jpg	true	true	r5	0.205
4	2021.11.25	21:46:08	121	social/wiry.jpg	true	true	r5	0.173
4	2021.11.25	21:46:08	122	inanimate/aprons.jpg	true	true	r5	0.391
4	2021.11.25	21:46:08	123	inanimate/receptions.jpg	false	true	r5	0.23
4	2021.11.25	21:46:08	124	social/chopping.jpg	true	true	r5	0.403
4	2021.11.25	21:46:08	125	inanimate/vanilla.jpg	true	true	r5	0.367
4	2021.11.25	21:46:08	126	social/gentle.jpg	true	true	r5	0.331
4	2021.11.25	21:46:08	127	inanimate/cake.jpg	true	true	r5	0.408
4	2021.11.25	21:46:08	128	social/nicotine.jpg	false	true	r5	0.306
4	2021.11.25	21:46:08	129	inanimate/jews.jpg	false	true	r5	0.521
4	2021.11.25	21:46:08	130	social/knitters.jpg	false	true	r5	0.419
4	2021.11.25	21:46:08	131	inanimate/fountain.jpg	true	true	r5	0.163
4	2021.11.25	21:46:08	132	inanimate/restraint.jpg	false	true	r5	0.327
4	2021.11.25	21:46:08	133	social/pillow.jpg	false	true	r5	0.2
4	2021.11.25	21:46:08	134	social/retrial.jpg	true	true	r5	0.289
4	2021.11.25	21:46:08	135	inanimate/wave.jpg	false	true	r5	0.197
4	2021.11.25	21:46:08	136	social/fragrant.jpg	true	true	r5	0.266
4	2021.11.25	21:46:08	137	social/lifts.jpg	false	true	r5	0.46
4	2021.11.25	21:46:08	138	social/closely.jpg	true	true	r5	0.408
4	2021.11.25	21:46:08	139	inanimate/resigned.jpg	true	true	r5	0.254
4	2021.11.25	21:46:08	140	social/clambering.jpg	true	true	r4	0.063
4	2021.11.25	21:46:08	141	inanimate/whistle.jpg	true	true	r4	0.138
4	2021.11.25	21:46:08	142	social/russet.jpg	false	true	r5	0.426
4	2021.11.25	21:46:08	143	social/cake.jpg	false	true	r4	0.012
4	2021.11.25	21:46:08	144	inanimate/saloon.jpg	true	true	r4	0.445
4	2021.11.25	21:46:08	145	social/solids.jpg	false	true	r5	0.269
4	2021.11.25	21:46:08	146	inanimate/burials.jpg	false	true	r5	1.66
4	2021.11.25	21:46:08	147	inanimate/closely.jpg	false	true	r4	0.345
4	2021.11.25	21:46:08	148	inanimate/budding.jpg	true	true	r5	0.135
4	2021.11.25	21:46:08	149	inanimate/ethnic.jpg	false	true	r4	0.091
4	2021.11.25	21:46:08	150	social/inhabited.jpg	false	true	r5	0.734
4	2021.11.25	21:46:08	151	social/lager.jpg	true	true	r4	0.136
4	2021.11.25	21:46:08	152	social/projecting.jpg	true	true	r5	0.085
4	2021.11.25	21:46:08	153	social/depressing.jpg	false	true	r5	0.103
4	2021.11.25	21:46:08	154	inanimate/lifts.jpg	false	true	r5	3.668
4	2021.11.25	21:46:08	155	inanimate/wear.jpg	true	true	r5	0.094
4	2021.11.25	21:46:08	156	social/vocals.jpg	true	true	r5	0.063
4	2021.11.25	21:46:08	157	inanimate/trails.jpg	false	true	r5	0.898
4	2021.11.25	21:46:08	158	inanimate/living.jpg	false	true	r5	0.411
4	2021.11.25	21:46:08	159	inanimate/pillow.jpg	true	true	r5	0.717
4	2021.11.25	21:46:08	160	inanimate/gentle.jpg	false	true	r5	0.282
4	2021.11.25	21:46:08	161	social/desert.jpg	true	true	r5	0.339
4	2021.11.25	21:46:08	162	social/veranda.jpg	true	true	r5	2.113
4	2021.11.25	21:46:08	163	inanimate/glittering.jpg	false	true	r5	0.444
4	2021.11.25	21:46:08	164	inanimate/drummers.jpg	true	true	r5	0.577
4	2021.11.25	21:46:08	165	inanimate/inhabited.jpg	true	true	r5	3.877
4	2021.11.25	21:46:08	166	social/discoloured.jpg	true	true	r5	0.341
4	2021.11.25	21:46:08	167	social/uneven.jpg	true	true	r5	0.004
4	2021.11.25	21:46:08	168	inanimate/mustered.jpg	false	true	r4	0.591
4	2021.11.25	21:46:08	169	inanimate/retrial.jpg	true	true	r3	0.294
4	2021.11.25	21:46:08	170	social/glittering.jpg	false	true	r5	0.297
4	2021.11.25	21:46:08	171	social/wave.jpg	true	true	r5	0.058
4	2021.11.25	21:46:08	172	social/suction.jpg	false	true	r5	0.028
4	2021.11.25	21:46:08	173	inanimate/nicotine.jpg	false	true	r5	0.083
4	2021.11.25	21:46:08	174	social/allotments.jpg	true	true	r5	0.301
4	2021.11.25	21:46:08	175	social/ethnic.jpg	false	true	r5	0.441
4	2021.11.25	21:46:08	176	social/aristocracy.jpg	true	true	r5	0.638
4	2021.11.25	21:46:08	177	inanimate/lager.jpg	true	true	r4	1.493
4	2021.11.25	21:46:08	178	social/wanderer.jpg	false	true	r5	1.202
4	2021.11.25	21:46:08	179	inanimate/eroding.jpg	false	true	r5	7.254
4	2021.11.25	21:46:08	180	inanimate/wanderer.jpg	true	true	r5	4.185
4	2021.11.25	21:46:08	181	social/restraint.jpg	false	true	r4	0.124
4	2021.11.25	21:46:08	182	inanimate/chopping.jpg	false	true	r5	0.72
4	2021.11.25	21:46:08	183	social/aprons.jpg	false	true	r5	0.97
4	2021.11.25	21:46:08	184	inanimate/manufacturing.jpg	false	true	r5	0.542
4	2021.11.25	21:46:08	185	inanimate/enlightened.jpg	true	true	r4	1.03
4	2021.11.25	21:46:08	186	inanimate/solids.jpg	true	true	r4	0.169
4	2021.11.25	21:46:08	187	inanimate/aristocracy.jpg	false	true	r4	0.172
4	2021.11.25	21:46:08	188	social/wear.jpg	false	true	r4	0.714
4	2021.11.25	21:46:08	189	inanimate/icelandic.jpg	false	true	r5	0.488
4	2021.11.25	21:46:08	190	social/simulators.jpg	false	true	r5	0.234
4	2021.11.25	21:46:08	191	social/fountain.jpg	false	true	r4	0.358
4	2021.11.25	21:46:08	192	social/castor.jpg	false	true	r5	0.312
4	2021.11.25	21:46:08	193	inanimate/detecting.jpg	true	true	r3	0.59
4	2021.11.25	21:46:08	194	social/trails.jpg	true	true	r4	0.108
4	2021.11.25	21:46:08	195	inanimate/veranda.jpg	false	true	r5	3.36
4	2021.11.25	21:46:08	196	inanimate/irretrievably.jpg	true	true	r5	1.696
4	2021.11.25	21:46:08	197	social/jews.jpg	false	true	r5	0.377
4	2021.11.25	21:46:08	198	social/tides.jpg	false	true	r4	2.514
4	2021.11.25	21:46:08	199	social/irretrievably.jpg	false	true	r4	0.667
4	2021.11.25	21:46:08	200	social/resigned.jpg	true	true	r5	0.457
4	2021.11.25	21:46:08	201	inanimate/car.jpg	false	true	r5	4.456
4	2021.11.25	21:46:08	202	inanimate/undercarriage.jpg	true	true	r5	0.368
4	2021.11.25	21:46:08	203	social/mustered.jpg	false	true	r5	8.933
4	2021.11.25	21:46:08	204	inanimate/uneven.jpg	false	true	r5	0.319
4	2021.11.25	21:46:08	205	social/detecting.jpg	true	true	r5	0.089
4	2021.11.25	21:46:08	206	social/inmates.jpg	false	true	r5	3.135
4	2021.11.25	21:46:08	207	inanimate/russet.jpg	true	true	r4	0.33
4	2021.11.25	21:46:08	208	social/icelandic.jpg	true	true	r3	0.943
4	2021.11.25	21:46:08	209	social/fattening.jpg	true	true	r5	1.13
4	2021.11.25	21:46:08	210	social/infected.jpg	true	true	r4	0.48
4	2021.11.25	21:46:08	211	inanimate/discoloured.jpg	true	true	r3	0.252
4	2021.11.25	21:46:08	212	social/graduated.jpg	false	true	r4	0.604
4	2021.11.25	21:46:08	213	inanimate/suction.jpg	true	true	r5	0.67
4	2021.11.25	21:46:08	214	social/burials.jpg	false	true	r5	0.282
4	2021.11.25	21:46:08	215	social/eroding.jpg	false	true	r5	0.139
4	2021.11.25	21:46:08	216	social/wharf.jpg	false	true	r5	0.079
4	2021.11.25	21:46:08	217	inanimate/knitters.jpg	false	true	r5	0.02
4	2021.11.25	21:46:08	218	inanimate/desert.jpg	true	true	r5	0.029
4	2021.11.25	21:46:08	219	social/stagecoach.jpg	true	true	r5	0.027
4	2021.11.25	21:46:08	220	inanimate/droning.jpg	false	true	r5	0.042
4	2021.11.25	21:46:08	221	inanimate/wharf.jpg	false	true	r5	0.074
4	2021.11.25	21:46:08	222	social/international.jpg	false	true	r5	0.089
4	2021.11.25	21:46:08	223	social/whistle.jpg	true	true	r5	0.074
4	2021.11.25	21:46:08	224	inanimate/water.jpg	false	true	r5	0.104
4	2021.11.25	21:46:08	225	social/living.jpg	false	true	r5	0.074
4	2021.11.25	21:46:08	226	inanimate/inmates.jpg	true	true	r5	0.079
4	2021.11.25	21:46:08	227	inanimate/graduated.jpg	true	true	r5	0.117
4	2021.11.25	21:46:08	228	inanimate/fattening.jpg	false	true	r5	0.095
4	2021.11.25	21:46:08	229	social/vanilla.jpg	true	true	r5	0.185
4	2021.11.25	21:46:08	230	social/drummers.jpg	false	true	r5	0.006
4	2021.11.25	21:46:08	231	social/runaway.jpg	true	true	r5	0.814
4	2021.11.25	21:46:08	232	social/cramming.jpg	true	true	r5	1.035
4	2021.11.25	21:46:08	233	inanimate/tides.jpg	true	true	r5	0.29
4	2021.11.25	21:46:08	234	inanimate/projecting.jpg	false	true	r5	1.647
4	2021.11.25	21:46:08	235	inanimate/contractor.jpg	false	true	r5	0.439
4	2021.11.25	21:46:08	236	social/droning.jpg	true	true	r5	4.323
4	2021.11.25	21:46:08	237	inanimate/runaway.jpg	false	true	r5	0.091
4	2021.11.25	21:46:08	238	inanimate/observational.jpg	false	true	r5	0.076
4	2021.11.25	21:46:08	239	social/undercarriage.jpg	false	true	r5	0.023
4	2021.11.25	21:46:08	240	social/smallholders.jpg	false	true	r5	0.041
4	2021.11.25	21:46:08	241	social/manufacturing.jpg	true	true	r5	0.176
4	2021.11.25	21:46:08	242	social/water.jpg	false	true	r5	0.058
4	2021.11.25	21:46:08	243	inanimate/infected.jpg	true	true	r5	0.03
4	2021.11.25	21:46:08	244	inanimate/straw.jpg	true	true	r5	0.058
4	2021.11.25	21:46:08	245	social/receptions.jpg	true	true	r5	0.139
4	2021.11.25	21:46:08	246	social/altars.jpg	true	true	r5	0.071
4	2021.11.25	21:46:08	247	social/deteriorating.jpg	false	true	r5	0.091
4	2021.11.25	21:46:08	248	inanimate/simulators.jpg	false	true	r5	0.107
4	2021.11.25	21:46:08	249	inanimate/clambering.jpg	false	true	r5	0.075
4	2021.11.25	21:46:08	250	inanimate/departmental.jpg	true	true	r5	0.07
4	2021.11.25	21:46:08	251	social/budding.jpg	false	true	r5	0.09
4	2021.11.25	21:46:08	252	inanimate/allotments.jpg	false	true	r5	0.095
4	2021.11.25	21:46:08	253	inanimate/buses.jpg	true	true	r5	0.084
4	2021.11.25	21:46:08	254	social/straw.jpg	true	true	r5	1.469
4	2021.11.25	21:46:08	255	inanimate/smallholders.jpg	false	true	r4	0.237
4	2021.11.25	21:46:08	256	inanimate/stagecoach.jpg	true	true	r4	0.074
4	2021.11.25	21:46:08	257	inanimate/fragrant.jpg	true	true	r4	0.038
4	2021.11.25	21:46:08	258	social/departmental.jpg	true	true	r4	0.074
4	2021.11.25	21:46:08	259	social/buses.jpg	true	true	r5	0.019
4	2021.11.25	21:46:08	260	inanimate/wiry.jpg	true	true	r5	0.019
4	2021.11.25	21:46:08	261	inanimate/altars.jpg	true	true	r4	0.489
4	2021.11.25	21:46:08	262	social/car.jpg	false	true	r4	0.155
4	2021.11.25	21:46:08	263	social/mastering.jpg	true	true	r4	0.172
4	2021.11.25	21:46:08	264	inanimate/deteriorating.jpg	true	true	r5	0.097
4	2021.11.25	21:46:08	265	social/enlightened.jpg	true	true	r5	0.251
4	2021.11.25	21:46:08	266	social/observational.jpg	true	true	r5	0.131
4	2021.11.25	21:46:08	267	social/contractor.jpg	true	true	r5	0.171
4	2021.11.25	21:46:08	268	inanimate/international.jpg	true	true	r5	0.383
4	2021.11.25	21:46:08	269	inanimate/mastering.jpg	false	true	r5	0.11
4	2021.11.25	21:46:08	270	inanimate/vocals.jpg	true	true	r5	0.114
4	2021.11.25	21:46:08	271	inanimate/depressing.jpg	false	true	r5	0.286
4	2021.11.25	21:46:08	272	inanimate/cramming.jpg	true	true	r5	0.051
4	2021.11.25	21:46:08	273	social/diamonds.jpg	true	true	r5	0.336
4	2021.11.25	21:46:08	274	inanimate/castor.jpg	false	true	r5	0.144
4	2021.11.25	21:46:08	275	inanimate/diamonds.jpg	true	true	r5	0.764
4	2021.11.25	21:46:08	276	social/saloon.jpg	false	true	r5	0.03
4	2021.11.25	21:46:08	277	social/wiry.jpg	false	true	r5	0.13
4	2021.11.25	21:46:08	278	inanimate/aprons.jpg	false	true	r5	0.29
4	2021.11.25	21:46:08	279	inanimate/receptions.jpg	true	true	r5	0.17
4	2021.11.25	21:46:08	280	social/chopping.jpg	false	true	r5	0.112
4	2021.11.25	21:46:08	281	inanimate/vanilla.jpg	false	true	r5	0.135
4	2021.11.25	21:46:08	282	social/gentle.jpg	false	true	r5	0.224
4	2021.11.25	21:46:08	283	inanimate/cake.jpg	false	true	r5	0.096
4	2021.11.25	21:46:08	284	social/nicotine.jpg	true	true	r5	0.234
4	2021.11.25	21:46:08	285	inanimate/jews.jpg	true	true	r5	0.191
4	2021.11.25	21:46:08	286	social/knitters.jpg	true	true	r4	0.35
4	2021.11.25	21:46:08	287	inanimate/fountain.jpg	false	true	r4	0.154
4	2021.11.25	21:46:08	288	inanimate/restraint.jpg	true	true	r5	0.195
4	2021.11.25	21:46:08	289	social/pillow.jpg	true	true	r5	0.156
4	2021.11.25	21:46:08	290	social/retrial.jpg	false	true	r5	0.059
4	2021.11.25	21:46:08	291	inanimate/wave.jpg	true	true	r5	0.317
4	2021.11.25	21:46:08	292	social/fragrant.jpg	false	true	r5	25.938
4	2021.11.25	21:46:08	293	social/lifts.jpg	true	true	r5	0.311
4	2021.11.25	21:46:08	294	social/closely.jpg	false	true	r5	0.273
4	2021.11.25	21:46:08	295	inanimate/resigned.jpg	false	true	r5	0.049
4	2021.11.25	21:46:08	296	social/clambering.jpg	false	true	r5	0.026
4	2021.11.25	21:46:08	297	inanimate/whistle.jpg	false	true	r5	0.059
4	2021.11.25	21:46:08	298	social/russet.jpg	true	true	r4	0.063
4	2021.11.25	21:46:08	299	social/cake.jpg	true	true	r4	0.198
4	2021.11.25	21:46:08	300	inanimate/saloon.jpg	false	true	r4	0.042
4	2021.11.25	21:46:08	301	social/solids.jpg	true	true	r4	0.073
4	2021.11.25	21:46:08	302	inanimate/burials.jpg	true	true	r5	0.09
4	2021.11.25	21:46:08	303	inanimate/closely.jpg	true	true	r5	0.253
4	2021.11.25	21:46:08	304	inanimate/budding.jpg	false	true	r5	0.124
4	2021.11.25	21:46:08	305	inanimate/ethnic.jpg	true	true	r5	0.203
4	2021.11.25	21:46:08	306	social/inhabited.jpg	true	true	r5	0.131
4	2021.11.25	21:46:08	307	social/lager.jpg	false	true	r5	0.172
4	2021.11.25	21:46:08	308	social/projecting.jpg	false	true	r5	0.155
4	2021.11.25	21:46:08	309	social/depressing.jpg	true	true	r5	0.247
4	2021.11.25	21:46:08	310	inanimate/lifts.jpg	true	true	r5	0.09
4	2021.11.25	21:46:08	311	inanimate/wear.jpg	false	true	r5	0.369
4	2021.11.25	21:46:08	312	social/vocals.jpg	false	true	r5	0.136
num	date	subjStartTime	trialNum	stimName	mirrored	inView	response	rt
1	2021.11.25	21:22:31	1	social/icelandic.jpg	true	true	r2	3.195
1	2021.11.25	21:22:31	2	social/straw.jpg	false	true	r2	2.929
1	2021.11.25	21:22:31	3	social/tides.jpg	false	true	r3	1.872
1	2021.11.25	21:22:31	4	inanimate/stagecoach.jpg	true	true	r2	1.703
1	2021.11.25	21:22:31	5	social/nicotine.jpg	false	true	r2	1.429
1	2021.11.25	21:22:31	6	inanimate/wave.jpg	true	true	r4	1.751
1	2021.11.25	21:22:31	7	social/jews.jpg	false	true	r2	2.108
1	2021.11.25	21:22:31	8	social/pillow.jpg	false	true	r2	2.716
1	2021.11.25	21:22:31	9	social/smallholders.jpg	true	true	r2	1.687
1	2021.11.25	21:22:31	10	inanimate/desert.jpg	false	true	r4	1.831
1	2021.11.25	21:22:31	11	inanimate/water.jpg	true	true	r5	2.323
1	2021.11.25	21:22:31	12	inanimate/projecting.jpg	false	true	r1	1.84
1	2021.11.25	21:22:31	13	inanimate/cake.jpg	true	true	r1	1.592
1	2021.11.25	21:22:31	14	inanimate/discoloured.jpg	false	true	r1	1.355
1	2021.11.25	21:22:31	15	inanimate/vocals.jpg	false	true	r1	2.3
1	2021.11.25	21:22:31	16	inanimate/chopping.jpg	false	true	r2	1.639
1	2021.11.25	21:22:31	17	social/restraint.jpg	false	true	r1	1.762
1	2021.11.25	21:22:31	18	inanimate/vanilla.jpg	true	true	r3	1.755
1	2021.11.25	21:22:31	19	inanimate/deteriorating.jpg	true	true	r1	1.8
1	2021.11.25	21:22:31	20	inanimate/fragrant.jpg	false	true	r3	1.654
1	2021.11.25	21:22:31	21	inanimate/saloon.jpg	false	true	r2	3.865
1	2021.11.25	21:22:31	22	inanimate/receptions.jpg	false	true	r2	1.615
1	2021.11.25	21:22:31	23	social/gentle.jpg	false	true	r3	3.082
1	2021.11.25	21:22:31	24	social/resigned.jpg	false	true	r1	2.315
1	2021.11.25	21:22:31	25	inanimate/veranda.jpg	false	true	r2	3.831
1	2021.11.25	21:22:31	26	social/aristocracy.jpg	false	true	r3	2.805
1	2021.11.25	21:22:31	27	inanimate/manufacturing.jpg	true	true	r2	2.275
1	2021.11.25	21:22:31	28	inanimate/observational.jpg	true	true	r2	1.493
1	2021.11.25	21:22:31	29	social/russet.jpg	true	true	r2	1.549
1	2021.11.25	21:22:31	30	social/manufacturing.jpg	true	true	r1	2.739
1	2021.11.25	21:22:31	31	inanimate/retrial.jpg	false	true	r2	4.385
1	2021.11.25	21:22:31	32	inanimate/buses.jpg	true	true	r1	1.875
1	2021.11.25	21:22:31	33	social/stagecoach.jpg	true	true	r2	3.745
1	2021.11.25	21:22:31	34	inanimate/living.jpg	true	true	r2	2.049
1	2021.11.25	21:22:31	35	social/infected.jpg	false	true	r2	3.599
1	2021.11.25	21:22:31	36	social/retrial.jpg	false	true	r2	2.915
1	2021.11.25	21:22:31	37	social/allotments.jpg	false	true	r2	1.319
1	2021.11.25	21:22:31	38	social/diamonds.jpg	true	true	r2	2.256
1	2021.11.25	21:22:31	39	social/projecting.jpg	false	true	r1	3.282
1	2021.11.25	21:22:31	40	inanimate/wanderer.jpg	false	true	r2	3.05
1	2021.11.25	21:22:31	41	social/wave.jpg	false	true	r4	2.452
1	2021.11.25	21:22:31	42	inanimate/international.jpg	false	true	r3	3.788
1	2021.11.25	21:22:31	43	social/fragrant.jpg	true	true	r3	2.767
1	2021.11.25	21:22:31	44	social/buses.jpg	false	true	r2	2.137
1	2021.11.25	21:22:31	45	social/closely.jpg	true	true	r2	2.228
1	2021.11.25	21:22:31	46	inanimate/smallholders.jpg	true	true	r2	2.306
1	2021.11.25	21:22:31	47	inanimate/russet.jpg	false	true	r1	1.694
1	2021.11.25	21:22:31	48	social/enlightened.jpg	true	true	r2	1.663
1	2021.11.25	21:22:31	49	social/fountain.jpg	true	true	r2	2.795
1	2021.11.25	21:22:31	50	inanimate/car.jpg	false	true	r1	1.931
1	2021.11.25	21:22:31	51	inanimate/diamonds.jpg	false	true	r3	1.514
1	2021.11.25	21:22:31	52	social/contractor.jpg	true	true	r1	2.46
1	2021.11.25	21:22:31	53	inanimate/glittering.jpg	false	true	r1	1.849
1	2021.11.25	21:22:31	54	inanimate/burials.jpg	true	true	r2	3.061
1	2021.11.25	21:22:31	55	inanimate/castor.jpg	false	true	r2	2.37
1	2021.11.25	21:22:31	56	inanimate/tides.jpg	false	true	r4	2.283
1	2021.11.25	21:22:31	57	inanimate/detecting.jpg	false	true	r2	5.639
1	2021.11.25	21:22:31	58	social/mastering.jpg	true	true	r2	10.955
1	2021.11.25	21:22:31	59	social/clambering.jpg	false	true	r2	2.191
1	2021.11.25	21:22:31	60	inanimate/allotments.jpg	false	true	r2	1.525
1	2021.11.25	21:22:31	61	inanimate/pillow.jpg	true	true	r2	6.468
1	2021.11.25	21:22:31	62	social/inmates.jpg	true	true	r1	2.089
1	2021.11.25	21:22:31	63	inanimate/enlightened.jpg	false	true	r4	3.635
1	2021.11.25	21:22:31	64	social/observational.jpg	true	true	r2	2.374
1	2021.11.25	21:22:31	65	inanimate/budding.jpg	false	true	r2	2.787
1	2021.11.25	21:22:31	66	social/budding.jpg	false	true	r2	3.217
1	2021.11.25	21:22:31	67	social/lifts.jpg	true	true	r1	1.784
1	2021.11.25	21:22:31	68	inanimate/clambering.jpg	true	true	r2	5.766
1	2021.11.25	21:22:31	69	inanimate/eroding.jpg	true	true	r4	1.947
1	2021.11.25	21:22:31	70	social/wharf.jpg	true	true	r2	4.322
1	2021.11.25	21:22:31	71	inanimate/departmental.jpg	true	true	r2	8.328
1	2021.11.25	21:22:31	72	inanimate/irretrievably.jpg	true	true	r1	12.762
1	2021.11.25	21:22:31	73	inanimate/infected.jpg	true	true	r1	1.445
1	2021.11.25	21:22:31	74	inanimate/aprons.jpg	false	true	r1	1.315
1	2021.11.25	21:22:31	75	social/cramming.jpg	false	true	r1	1.308
1	2021.11.25	21:22:31	76	social/whistle.jpg	true	true	r2	2.041
1	2021.11.25	21:22:31	77	inanimate/graduated.jpg	true	true	r2	2.128
1	2021.11.25	21:22:31	78	inanimate/gentle.jpg	false	true	r3	2.077
1	2021.11.25	21:22:31	79	inanimate/icelandic.jpg	false	true	r4	2.017
1	2021.11.25	21:22:31	80	inanimate/inhabited.jpg	true	true	r4	1.397
1	2021.11.25	21:22:31	81	inanimate/jews.jpg	false	true	r2	4.511
1	2021.11.25	21:22:31	82	inanimate/wharf.jpg	false	true	r3	1.808
1	2021.11.25	21:22:31	83	inanimate/fattening.jpg	false	true	r1	1.711
1	2021.11.25	21:22:31	84	inanimate/cramming.jpg	true	true	r1	1.292
1	2021.11.25	21:22:31	85	inanimate/wiry.jpg	false	true	r1	1.163
1	2021.11.25	21:22:31	86	inanimate/nicotine.jpg	true	true	r2	2.259
1	2021.11.25	21:22:31	87	social/glittering.jpg	false	true	r2	2.196
1	2021.11.25	21:22:31	88	inanimate/undercarriage.jpg	true	true	r1	2.17
1	2021.11.25	21:22:31	89	inanimate/uneven.jpg	true	true	r1	1.59
1	2021.11.25	21:22:31	90	inanimate/lager.jpg	true	true	r1	1.405
1	2021.11.25	21:22:31	91	social/uneven.jpg	true	true	r1	1.199
1	2021.11.25	21:22:31	92	inanimate/knitters.jpg	true	true	r2	2.453
1	2021.11.25	21:22:31	93	inanimate/inmates.jpg	true	true	r1	1.525
1	2021.11.25	21:22:31	94	social/detecting.jpg	true	true	r2	1.695
1	2021.11.25	21:22:31	95	social/graduated.jpg	true	true	r2	1.666
1	2021.11.25	21:22:31	96	social/receptions.jpg	true	true	r2	1.522
1	2021.11.25	21:22:31	97	social/wiry.jpg	true	true	r1	1.809
1	2021.11.25	21:22:31	98	inanimate/runaway.jpg	false	true	r3	3.121
1	2021.11.25	21:22:31	99	social/wanderer.jpg	true	true	r2	2.27
1	2021.11.25	21:22:31	100	inanimate/fountain.jpg	false	true	r3	4.411
1	2021.11.25	21:22:31	101	inanimate/lifts.jpg	true	true	r3	1.799
1	2021.11.25	21:22:31	102	social/water.jpg	false	true	r3	2.498
1	2021.11.25	21:22:31	103	social/vanilla.jpg	true	true	r3	2.749
1	2021.11.25	21:22:31	104	social/wear.jpg	false	true	r1	1.891
1	2021.11.25	21:22:31	105	social/solids.jpg	false	true	r2	3.145
1	2021.11.25	21:22:31	106	inanimate/closely.jpg	true	true	r1	1.796
1	2021.11.25	21:22:31	107	inanimate/aristocracy.jpg	true	true	r3	2.541
1	2021.11.25	21:22:31	108	social/lager.jpg	true	true	r1	5.337
1	2021.11.25	21:22:31	109	social/ethnic.jpg	false	true	r3	3.084
1	2021.11.25	21:22:31	110	inanimate/whistle.jpg	false	true	r2	1.776
1	2021.11.25	21:22:31	111	inanimate/contractor.jpg	false	true	r2	1.702
1	2021.11.25	21:22:31	112	inanimate/resigned.jpg	true	true	r1	2.275
1	2021.11.25	21:22:31	113	inanimate/altars.jpg	true	true	r2	4.04
1	2021.11.25	21:22:31	114	social/desert.jpg	true	true	r3	4.415
1	2021.11.25	21:22:31	115	inanimate/droning.jpg	true	true	r3	4.927
1	2021.11.25	21:22:31	116	social/car.jpg	false	true	r2	6.084
1	2021.11.25	21:22:31	117	social/cake.jpg	false	true	r1	3.929
1	2021.11.25	21:22:31	118	social/depressing.jpg	false	true	r2	5.369
1	2021.11.25	21:22:31	119	social/veranda.jpg	true	true	r3	2.026
1	2021.11.25	21:22:31	120	social/discoloured.jpg	true	true	r3	2.91
1	2021.11.25	21:22:31	121	social/knitters.jpg	false	true	r2	4.548
1	2021.11.25	21:22:31	122	inanimate/mustered.jpg	true	true	r3	2.484
1	2021.11.25	21:22:31	123	inanimate/straw.jpg	false	true	r2	2.675
1	2021.11.25	21:22:31	124	inanimate/simulators.jpg	false	true	r2	3.696
1	2021.11.25	21:22:31	125	inanimate/ethnic.jpg	false	true	r2	2.668
1	2021.11.25	21:22:31	126	social/castor.jpg	false	true	r2	3.936
1	2021.11.25	21:22:31	127	social/departmental.jpg	true	true	r3	6.889
1	2021.11.25	21:22:31	128	social/trails.jpg	false	true	r2	6.381
1	2021.11.25	21:22:31	129	social/mustered.jpg	true	true	r2	2.387
1	2021.11.25	21:22:31	130	social/irretrievably.jpg	true	true	r2	16.32
1	2021.11.25	21:22:31	131	social/deteriorating.jpg	false	true	r3	2.396
1	2021.11.25	21:22:31	132	social/eroding.jpg	false	true	r2	2.009
1	2021.11.25	21:22:31	133	social/fattening.jpg	true	true	r2	2.122
1	2021.11.25	21:22:31	134	social/drummers.jpg	true	true	r2	3.153
1	2021.11.25	21:22:31	135	social/aprons.jpg	true	true	r2	3.096
1	2021.11.25	21:22:31	136	inanimate/restraint.jpg	true	true	r1	1.884
1	2021.11.25	21:22:31	137	inanimate/wear.jpg	true	true	r1	1.792
1	2021.11.25	21:22:31	138	social/droning.jpg	false	true	r2	2.331
1	2021.11.25	21:22:31	139	inanimate/trails.jpg	true	true	r3	1.832
1	2021.11.25	21:22:31	140	inanimate/solids.jpg	false	true	r4	2.294
1	2021.11.25	21:22:31	141	social/undercarriage.jpg	true	true	r1	2.848
1	2021.11.25	21:22:31	142	social/simulators.jpg	true	true	r2	5.669
1	2021.11.25	21:22:31	143	social/vocals.jpg	true	true	r3	3.962
1	2021.11.25	21:22:31	144	social/inhabited.jpg	false	true	r1	2.517
1	2021.11.25	21:22:31	145	social/chopping.jpg	false	true	r2	3.039
1	2021.11.25	21:22:31	146	social/suction.jpg	false	true	r2	1.891
1	2021.11.25	21:22:31	147	social/international.jpg	true	true	r1	9.137
1	2021.11.25	21:22:31	148	inanimate/mastering.jpg	false	true	r2	2.508
1	2021.11.25	21:22:31	149	social/burials.jpg	true	true	r2	1.841
1	2021.11.25	21:22:31	150	inanimate/depressing.jpg	true	true	r3	1.824
1	2021.11.25	21:22:31	151	inanimate/suction.jpg	true	true	r2	1.985
1	2021.11.25	21:22:31	152	social/runaway.jpg	false	true	r1	1.973
1	2021.11.25	21:22:31	153	social/altars.jpg	false	true	r2	2.193
1	2021.11.25	21:22:31	154	inanimate/drummers.jpg	false	true	r2	1.824
1	2021.11.25	21:22:31	155	social/saloon.jpg	false	true	r3	2.129
1	2021.11.25	21:22:31	156	social/living.jpg	false	true	r2	2.411
1	2021.11.25	21:22:31	157	social/icelandic.jpg	false	true	r3	3.466
1	2021.11.25	21:22:31	158	social/straw.jpg	true	true	r3	2.445
1	2021.11.25	21:22:31	159	social/tides.jpg	true	true	r4	4.426
1	2021.11.25	21:22:31	160	inanimate/stagecoach.jpg	false	true	r2	6.848
1	2021.11.25	21:22:31	161	social/nicotine.jpg	true	true	r3	2.388
1	2021.11.25	21:22:31	162	inanimate/wave.jpg	false	true	r4	4.1
1	2021.11.25	21:22:31	163	social/jews.jpg	true	true	r1	3.056
1	2021.11.25	21:22:31	164	social/pillow.jpg	true	true	r1	2.677
1	2021.11.25	21:22:31	165	social/smallholders.jpg	false	true	r2	1.589
1	2021.11.25	21:22:31	166	inanimate/desert.jpg	true	true	r4	2.368
1	2021.11.25	21:22:31	167	inanimate/water.jpg	false	true	r4	3.059
1	2021.11.25	21:22:31	168	inanimate/projecting.jpg	true	true	r2	7.404
1	2021.11.25	21:22:31	169	inanimate/cake.jpg	false	true	r2	4.793
1	2021.11.25	21:22:31	170	inanimate/discoloured.jpg	true	true	r1	2.646
1	2021.11.25	21:22:31	171	inanimate/vocals.jpg	true	true	r2	2.166
1	2021.11.25	21:22:31	172	inanimate/chopping.jpg	true	true	r2	2.07
1	2021.11.25	21:22:31	173	social/restraint.jpg	true	true	r2	36.977
1	2021.11.25	21:22:31	174	inanimate/vanilla.jpg	false	true	r2	10.366
1	2021.11.25	21:22:31	175	inanimate/deteriorating.jpg	false	true	r1	1.917
1	2021.11.25	21:22:31	176	inanimate/fragrant.jpg	true	true	r2	1.511
1	2021.11.25	21:22:31	177	inanimate/saloon.jpg	true	true	r3	2.163
1	2021.11.25	21:22:31	178	inanimate/receptions.jpg	true	true	r3	2.501
1	2021.11.25	21:22:31	179	social/gentle.jpg	true	true	r3	2.652
1	2021.11.25	21:22:31	180	social/resigned.jpg	true	true	r1	2.952
1	2021.11.25	21:22:31	181	inanimate/veranda.jpg	true	true	r3	2.622
1	2021.11.25	21:22:31	182	social/aristocracy.jpg	true	true	r3	2.781
1	2021.11.25	21:22:31	183	inanimate/manufacturing.jpg	false	true	r3	2.033
1	2021.11.25	21:22:31	184	inanimate/observational.jpg	false	true	r2	1.593
1	2021.11.25	21:22:31	185	social/russet.jpg	false	true	r2	2.066
1	2021.11.25	21:22:31	186	social/manufacturing.jpg	false	true	r2	1.731
1	2021.11.25	21:22:31	187	inanimate/retrial.jpg	true	true	r3	2.572
1	2021.11.25	21:22:31	188	inanimate/buses.jpg	false	true	r3	1.316
1	2021.11.25	21:22:31	189	social/stagecoach.jpg	false	true	r2	4.225
1	2021.11.25	21:22:31	190	inanimate/living.jpg	false	true	r2	2.102
1	2021.11.25	21:22:31	191	social/infected.jpg	true	true	r2	5.112
1	2021.11.25	21:22:31	192	social/retrial.jpg	true	true	r2	1.761
1	2021.11.25	21:22:31	193	social/allotments.jpg	true	true	r1	3.206
1	2021.11.25	21:22:31	194	social/diamonds.jpg	false	true	r2	1.811
1	2021.11.25	21:22:31	195	social/projecting.jpg	true	true	r2	7.729
1	2021.11.25	21:22:31	196	inanimate/wanderer.jpg	true	true	r3	4.018
1	2021.11.25	21:22:31	197	social/wave.jpg	true	true	r4	3.423
1	2021.11.25	21:22:31	198	inanimate/international.jpg	true	true	r4	2.982
1	2021.11.25	21:22:31	199	social/fragrant.jpg	false	true	r4	1.655
1	2021.11.25	21:22:31	200	social/buses.jpg	true	true	r2	2.598
1	2021.11.25	21:22:31	201	social/closely.jpg	false	true	r2	1.424
1	2021.11.25	21:22:31	202	inanimate/smallholders.jpg	false	true	r2	2.005
1	2021.11.25	21:22:31	203	inanimate/russet.jpg	true	true	r2	6.138
1	2021.11.25	21:22:31	204	social/enlightened.jpg	false	true	r2	4.994
1	2021.11.25	21:22:31	205	social/fountain.jpg	false	true	r2	4.171
1	2021.11.25	21:22:31	206	inanimate/car.jpg	true	true	r1	2.453
1	2021.11.25	21:22:31	207	inanimate/diamonds.jpg	true	true	r3	1.823
1	2021.11.25	21:22:31	208	social/contractor.jpg	false	true	r1	9.968
1	2021.11.25	21:22:31	209	inanimate/glittering.jpg	true	true	r2	1.987
1	2021.11.25	21:22:31	210	inanimate/burials.jpg	false	true	r2	4.135
1	2021.11.25	21:22:31	211	inanimate/castor.jpg	true	true	r2	6.791
1	2021.11.25	21:22:31	212	inanimate/tides.jpg	true	true	r4	2.132
1	2021.11.25	21:22:31	213	inanimate/detecting.jpg	true	true	r2	2.239
1	2021.11.25	21:22:31	214	social/mastering.jpg	false	true	r2	1.616
1	2021.11.25	21:22:31	215	social/clambering.jpg	true	true	r3	2.829
1	2021.11.25	21:22:31	216	inanimate/allotments.jpg	true	true	r3	11.35
1	2021.11.25	21:22:31	217	inanimate/pillow.jpg	false	true	r2	1.687
1	2021.11.25	21:22:31	218	social/inmates.jpg	false	true	r1	2.292
1	2021.11.25	21:22:31	219	inanimate/enlightened.jpg	true	true	r4	2.278
1	2021.11.25	21:22:31	220	social/observational.jpg	false	true	r2	1.557
1	2021.11.25	21:22:31	221	inanimate/budding.jpg	true	true	r2	2.168
1	2021.11.25	21:22:31	222	social/budding.jpg	true	true	r3	5.124
1	2021.11.25	21:22:31	223	social/lifts.jpg	false	true	r2	2.084
1	2021.11.25	21:22:31	224	inanimate/clambering.jpg	false	true	r3	1.582
1	2021.11.25	21:22:31	225	inanimate/eroding.jpg	false	true	r4	3.226
1	2021.11.25	21:22:31	226	social/wharf.jpg	false	true	r3	2.267
1	2021.11.25	21:22:31	227	inanimate/departmental.jpg	false	true	r2	1.904
1	2021.11.25	21:22:31	228	inanimate/irretrievably.jpg	false	true	r2	1.356
1	2021.11.25	21:22:31	229	inanimate/infected.jpg	false	true	r2	2.253
1	2021.11.25	21:22:31	230	inanimate/aprons.jpg	true	true	r3	3.032
1	2021.11.25	21:22:31	231	social/cramming.jpg	true	true	r2	1.279
1	2021.11.25	21:22:31	232	social/whistle.jpg	false	true	r3	2.341
1	2021.11.25	21:22:31	233	inanimate/graduated.jpg	false	true	r3	48.026
1	2021.11.25	21:22:31	234	inanimate/gentle.jpg	true	true	r4	9.005
1	2021.11.25	21:22:31	235	inanimate/icelandic.jpg	true	true	r5	2.555
1	2021.11.25	21:22:31	236	inanimate/inhabited.jpg	false	true	r5	31.51
1	2021.11.25	21:22:31	237	inanimate/jews.jpg	true	true	r3	2.369
1	2021.11.25	21:22:31	238	inanimate/wharf.jpg	true	true	r3	8.936
1	2021.11.25	21:22:31	239	inanimate/fattening.jpg	true	true	r1	1.962
1	2021.11.25	21:22:31	240	inanimate/cramming.jpg	false	true	r3	1.888
1	2021.11.25	21:22:31	241	inanimate/wiry.jpg	true	true	r3	7.903
1	2021.11.25	21:22:31	242	inanimate/nicotine.jpg	false	true	r3	1.739
1	2021.11.25	21:22:31	243	social/glittering.jpg	true	true	r2	1.542
1	2021.11.25	21:22:31	244	inanimate/undercarriage.jpg	false	true	r1	1.469
1	2021.11.25	21:22:31	245	inanimate/uneven.jpg	false	true	r2	1.352
1	2021.11.25	21:22:31	246	inanimate/lager.jpg	false	true	r2	1.171
1	2021.11.25	21:22:31	247	social/uneven.jpg	false	true	r1	1.461
1	2021.11.25	21:22:31	248	inanimate/knitters.jpg	false	true	r2	3.636
1	2021.11.25	21:22:31	249	inanimate/inmates.jpg	false	true	r2	1.541
1	2021.11.25	21:22:31	250	social/detecting.jpg	false	true	r2	1.412
1	2021.11.25	21:22:31	251	social/graduated.jpg	false	true	r2	31.13
1	2021.11.25	21:22:31	252	social/receptions.jpg	false	true	r2	4.199
1	2021.11.25	21:22:31	253	social/wiry.jpg	false	true	r1	1.203
1	2021.11.25	21:22:31	254	inanimate/runaway.jpg	true	true	r3	1.416
1	2021.11.25	21:22:31	255	social/wanderer.jpg	false	true	r2	1.681
1	2021.11.25	21:22:31	256	inanimate/fountain.jpg	true	true	r4	2.194
1	2021.11.25	21:22:31	257	inanimate/lifts.jpg	false	true	r3	1.429
1	2021.11.25	21:22:31	258	social/water.jpg	true	true	r3	1.413
1	2021.11.25	21:22:31	259	social/vanilla.jpg	false	true	r4	1.567
1	2021.11.25	21:22:31	260	social/wear.jpg	true	true	r1	1.437
1	2021.11.25	21:22:31	261	social/solids.jpg	true	true	r2	1.315
1	2021.11.25	21:22:31	262	inanimate/closely.jpg	false	true	r1	1.348
1	2021.11.25	21:22:31	263	inanimate/aristocracy.jpg	false	true	r4	1.943
1	2021.11.25	21:22:31	264	social/lager.jpg	false	true	r2	2.202
1	2021.11.25	21:22:31	265	social/ethnic.jpg	true	true	r3	2.431
1	2021.11.25	21:22:31	266	inanimate/whistle.jpg	true	true	r2	1.84
1	2021.11.25	21:22:31	267	inanimate/contractor.jpg	true	true	r2	1.207
1	2021.11.25	21:22:31	268	inanimate/resigned.jpg	false	true	r2	2.958
1	2021.11.25	21:22:31	269	inanimate/altars.jpg	false	true	r2	1.939
1	2021.11.25	21:22:31	270	social/desert.jpg	false	true	r3	2.712
1	2021.11.25	21:22:31	271	inanimate/droning.jpg	false	true	r3	1.542
1	2021.11.25	21:22:31	272	social/car.jpg	true	true	r3	2.304
1	2021.11.25	21:22:31	273	social/cake.jpg	true	true	r2	2.473
1	2021.11.25	21:22:31	274	social/depressing.jpg	true	true	r2	1.864
1	2021.11.25	21:22:31	275	social/veranda.jpg	false	true	r3	1.981
1	2021.11.25	21:22:31	276	social/discoloured.jpg	false	true	r3	2.437
1	2021.11.25	21:22:31	277	social/knitters.jpg	true	true	r3	2.331
1	2021.11.25	21:22:31	278	inanimate/mustered.jpg	false	true	r4	1.832
1	2021.11.25	21:22:31	279	inanimate/straw.jpg	true	true	r2	3.53
1	2021.11.25	21:22:31	280	inanimate/simulators.jpg	true	true	r3	1.968
1	2021.11.25	21:22:31	281	inanimate/ethnic.jpg	true	true	r4	2.195
1	2021.11.25	21:22:31	282	social/castor.jpg	true	true	r3	3.493
1	2021.11.25	21:22:31	283	social/departmental.jpg	false	true	r2	1.938
1	2021.11.25	21:22:31	284	social/trails.jpg	true	true	r3	1.879
1	2021.11.25	21:22:31	285	social/mustered.jpg	false	true	r4	2.46
1	2021.11.25	21:22:31	286	social/irretrievably.jpg	false	true	r2	1.605
1	2021.11.25	21:22:31	287	social/deteriorating.jpg	true	true	r3	1.541
1	2021.11.25	21:22:31	288	social/eroding.jpg	true	true	r3	2.181
1	2021.11.25	21:22:31	289	social/fattening.jpg	false	true	r3	3.069
1	2021.11.25	21:22:31	290	social/drummers.jpg	false	true	r3	3.791
1	2021.11.25	21:22:31	291	social/aprons.jpg	false	true	r2	3.201
1	2021.11.25	21:22:31	292	inanimate/restraint.jpg	false	true	r1	1.875
1	2021.11.25	21:22:31	293	inanimate/wear.jpg	false	true	r1	1.529
1	2021.11.25	21:22:31	294	social/droning.jpg	true	true	r2	4.764
1	2021.11.25	21:22:31	295	inanimate/trails.jpg	false	true	r3	3.742
1	2021.11.25	21:22:31	296	inanimate/solids.jpg	true	true	r5	4.514
1	2021.11.25	21:22:31	297	social/undercarriage.jpg	false	true	r1	3.016
1	2021.11.25	21:22:31	298	social/simulators.jpg	false	true	r3	34.164
1	2021.11.25	21:22:31	299	social/vocals.jpg	false	true	r3	1.214
1	2021.11.25	21:22:31	300	social/inhabited.jpg	true	true	r3	1.356
1	2021.11.25	21:22:31	301	social/chopping.jpg	true	true	r3	1.63
1	2021.11.25	21:22:31	302	social/suction.jpg	true	true	r3	1.139
1	2021.11.25	21:22:31	303	social/international.jpg	false	true	r2	1.791
1	2021.11.25	21:22:31	304	inanimate/mastering.jpg	true	true	r2	2.772
1	2021.11.25	21:22:31	305	social/burials.jpg	false	true	r3	2.448
1	2021.11.25	21:22:31	306	inanimate/depressing.jpg	false	true	r3	1.977
1	2021.11.25	21:22:31	307	inanimate/suction.jpg	false	true	r1	1.536
1	2021.11.25	21:22:31	308	social/runaway.jpg	true	true	r1	1.106
1	2021.11.25	21:22:31	309	social/altars.jpg	true	true	r2	1.613
1	2021.11.25	21:22:31	310	inanimate/drummers.jpg	true	true	r2	1.46
1	2021.11.25	21:22:31	311	social/saloon.jpg	true	true	r3	1.696
1	2021.11.25	21:22:31	312	social/living.jpg	true	true	r2	3.555
num	date	subjStartTime	trialNum	stimName	mirrored	inView	response	rt
2	2021.11.25	21:31:49	1	inanimate/wharf.jpg	true	true	r2	3.147
2	2021.11.25	21:31:49	2	inanimate/saloon.jpg	false	true	r4	2.22
2	2021.11.25	21:31:49	3	social/chopping.jpg	true	true	r3	5.052
2	2021.11.25	21:31:49	4	inanimate/russet.jpg	true	true	r4	2.561
2	2021.11.25	21:31:49	5	social/saloon.jpg	true	true	r5	3.161
2	2021.11.25	21:31:49	6	inanimate/contractor.jpg	false	true	r4	1.957
2	2021.11.25	21:31:49	7	inanimate/wiry.jpg	false	true	r4	1.874
2	2021.11.25	21:31:49	8	social/fountain.jpg	false	true	r1	3.276
2	2021.11.25	21:31:49	9	inanimate/living.jpg	true	true	r5	2.643
2	2021.11.25	21:31:49	10	inanimate/departmental.jpg	false	true	r5	1.959
2	2021.11.25	21:31:49	11	social/budding.jpg	true	true	r4	3.449
2	2021.11.25	21:31:49	12	social/wiry.jpg	true	true	r1	1.316
2	2021.11.25	21:31:49	13	social/depressing.jpg	false	true	r2	1.748
2	2021.11.25	21:31:49	14	social/allotments.jpg	true	true	r2	1.478
2	2021.11.25	21:31:49	15	inanimate/wear.jpg	true	true	r4	4.585
2	2021.11.25	21:31:49	16	inanimate/inhabited.jpg	false	true	r6	2.833
2	2021.11.25	21:31:49	17	social/observational.jpg	true	true	r4	2.912
2	2021.11.25	21:31:49	18	inanimate/simulators.jpg	true	true	r4	3.09
2	2021.11.25	21:31:49	19	social/trails.jpg	false	true	r3	2.191
2	2021.11.25	21:31:49	20	social/water.jpg	true	true	r5	2.221
2	2021.11.25	21:31:49	21	social/diamonds.jpg	true	true	r4	3.911
2	2021.11.25	21:31:49	22	social/veranda.jpg	true	true	r3	2.461
2	2021.11.25	21:31:49	23	inanimate/smallholders.jpg	false	true	r4	3.246
2	2021.11.25	21:31:49	24	inanimate/runaway.jpg	true	true	r6	2.447
2	2021.11.25	21:31:49	25	inanimate/pillow.jpg	true	true	r4	1.955
2	2021.11.25	21:31:49	26	inanimate/glittering.jpg	true	true	r3	1.886
2	2021.11.25	21:31:49	27	inanimate/aprons.jpg	true	true	r4	1.418
2	2021.11.25	21:31:49	28	social/enlightened.jpg	false	true	r4	2.242
2	2021.11.25	21:31:49	29	social/closely.jpg	true	true	r4	2.138
2	2021.11.25	21:31:49	30	social/burials.jpg	false	true	r4	4.091
2	2021.11.25	21:31:49	31	inanimate/jews.jpg	true	true	r2	1.804
2	2021.11.25	21:31:49	32	social/aristocracy.jpg	false	true	r4	1.764
2	2021.11.25	21:31:49	33	social/inmates.jpg	false	true	r1	1.989
2	2021.11.25	21:31:49	34	social/lager.jpg	false	true	r3	1.764
2	2021.11.25	21:31:49	35	inanimate/tides.jpg	false	true	r3	2.503
2	2021.11.25	21:31:49	36	inanimate/mastering.jpg	false	true	r3	1.938
2	2021.11.25	21:31:49	37	inanimate/eroding.jpg	false	true	r6	2.736
2	2021.11.25	21:31:49	38	inanimate/detecting.jpg	true	true	r2	3.369
2	2021.11.25	21:31:49	39	inanimate/projecting.jpg	false	true	r3	2.145
2	2021.11.25	21:31:49	40	inanimate/fountain.jpg	true	true	r4	3.407
2	2021.11.25	21:31:49	41	inanimate/suction.jpg	true	true	r4	1.373
2	2021.11.25	21:31:49	42	social/manufacturing.jpg	false	true	r4	19.612
2	2021.11.25	21:31:49	43	social/retrial.jpg	false	true	r4	2.62
2	2021.11.25	21:31:49	44	social/cramming.jpg	false	true	r5	1.856
2	2021.11.25	21:31:49	45	social/simulators.jpg	false	true	r4	1.732
2	2021.11.25	21:31:49	46	social/eroding.jpg	true	true	r3	1.714
2	2021.11.25	21:31:49	47	social/cake.jpg	false	true	r4	1.703
2	2021.11.25	21:31:49	48	social/discoloured.jpg	false	true	r5	1.742
2	2021.11.25	21:31:49	49	inanimate/burials.jpg	false	true	r4	1.989
2	2021.11.25	21:31:49	50	social/altars.jpg	true	true	r4	1.838
2	2021.11.25	21:31:49	51	social/gentle.jpg	false	true	r3	2.194
2	2021.11.25	21:31:49	52	social/car.jpg	true	true	r3	1.998
2	2021.11.25	21:31:49	53	inanimate/restraint.jpg	false	true	r2	2.84
2	2021.11.25	21:31:49	54	inanimate/nicotine.jpg	true	true	r3	3.067
2	2021.11.25	21:31:49	55	social/wave.jpg	true	true	r4	1.841
2	2021.11.25	21:31:49	56	inanimate/veranda.jpg	false	true	r4	1.343
2	2021.11.25	21:31:49	57	inanimate/closely.jpg	true	true	r3	2.089
2	2021.11.25	21:31:49	58	inanimate/depressing.jpg	true	true	r4	1.77
2	2021.11.25	21:31:49	59	social/receptions.jpg	true	true	r5	1.397
2	2021.11.25	21:31:49	60	inanimate/discoloured.jpg	true	true	r1	1.339
2	2021.11.25	21:31:49	61	social/tides.jpg	false	true	r4	1.289
2	2021.11.25	21:31:49	62	social/uneven.jpg	true	true	r1	1.297
2	2021.11.25	21:31:49	63	social/projecting.jpg	true	true	r4	1.655
2	2021.11.25	21:31:49	64	social/pillow.jpg	false	true	r4	1.847
2	2021.11.25	21:31:49	65	inanimate/international.jpg	false	true	r5	1.537
2	2021.11.25	21:31:49	66	inanimate/cramming.jpg	true	true	r5	1.276
2	2021.11.25	21:31:49	67	social/mastering.jpg	true	true	r5	1.152
2	2021.11.25	21:31:49	68	inanimate/drummers.jpg	true	true	r4	1.427
2	2021.11.25	21:31:49	69	social/fattening.jpg	false	true	r2	1.52
2	2021.11.25	21:31:49	70	inanimate/wave.jpg	false	true	r6	1.463
2	2021.11.25	21:31:49	71	social/glittering.jpg	false	true	r5	1.489
2	2021.11.25	21:31:49	72	inanimate/icelandic.jpg	true	true	r5	1.057
2	2021.11.25	21:31:49	73	inanimate/manufacturing.jpg	true	true	r4	1.587
2	2021.11.25	21:31:49	74	social/icelandic.jpg	false	true	r3	1.346
2	2021.11.25	21:31:49	75	social/inhabited.jpg	false	true	r2	2.184
2	2021.11.25	21:31:49	76	inanimate/stagecoach.jpg	false	true	r4	1.541
2	2021.11.25	21:31:49	77	social/restraint.jpg	true	true	r3	3.955
2	2021.11.25	21:31:49	78	inanimate/cake.jpg	false	true	r5	1.464
2	2021.11.25	21:31:49	79	inanimate/droning.jpg	true	true	r4	1.681
2	2021.11.25	21:31:49	80	social/straw.jpg	true	true	r4	2.617
2	2021.11.25	21:31:49	81	inanimate/clambering.jpg	true	true	r2	3.236
2	2021.11.25	21:31:49	82	social/undercarriage.jpg	true	true	r4	1.298
2	2021.11.25	21:31:49	83	inanimate/deteriorating.jpg	false	true	r4	29.32
2	2021.11.25	21:31:49	84	inanimate/solids.jpg	false	true	r5	1.408
2	2021.11.25	21:31:49	85	social/ethnic.jpg	false	true	r5	1.459
2	2021.11.25	21:31:49	86	social/infected.jpg	false	true	r5	1.113
2	2021.11.25	21:31:49	87	inanimate/buses.jpg	false	true	r4	1.315
2	2021.11.25	21:31:49	88	inanimate/mustered.jpg	false	true	r5	1.216
2	2021.11.25	21:31:49	89	social/graduated.jpg	true	true	r5	1.957
2	2021.11.25	21:31:49	90	inanimate/graduated.jpg	true	true	r5	3.305
2	2021.11.25	21:31:49	91	inanimate/inmates.jpg	false	true	r4	2.04
2	2021.11.25	21:31:49	92	inanimate/irretrievably.jpg	false	true	r4	1.179
2	2021.11.25	21:31:49	93	inanimate/knitters.jpg	false	true	r4	1.414
2	2021.11.25	21:31:49	94	inanimate/retrial.jpg	false	true	r4	1.054
2	2021.11.25	21:31:49	95	inanimate/lager.jpg	true	true	r4	2.834
2	2021.11.25	21:31:49	96	inanimate/desert.jpg	false	true	r5	1.184
2	2021.11.25	21:31:49	97	social/contractor.jpg	false	true	r5	1.941
2	2021.11.25	21:31:49	98	inanimate/car.jpg	false	true	r4	1.826
2	2021.11.25	21:31:49	99	inanimate/uneven.jpg	false	true	r4	2.049
2	2021.11.25	21:31:49	100	social/stagecoach.jpg	false	true	r3	1.721
2	2021.11.25	21:31:49	101	social/clambering.jpg	false	true	r4	1.752
2	2021.11.25	21:31:49	102	inanimate/water.jpg	true	true	r6	1.587
2	2021.11.25	21:31:49	103	social/vocals.jpg	false	true	r4	1.613
2	2021.11.25	21:31:49	104	social/irretrievably.jpg	true	true	r2	5.139
2	2021.11.25	21:31:49	105	inanimate/vocals.jpg	true	true	r4	1.516
2	2021.11.25	21:31:49	106	social/international.jpg	true	true	r5	1.3
2	2021.11.25	21:31:49	107	social/wanderer.jpg	false	true	r2	1.576
2	2021.11.25	21:31:49	108	inanimate/castor.jpg	true	true	r6	2.971
2	2021.11.25	21:31:49	109	inanimate/whistle.jpg	false	true	r3	1.993
2	2021.11.25	21:31:49	110	social/runaway.jpg	false	true	r3	2.068
2	2021.11.25	21:31:49	111	inanimate/gentle.jpg	true	true	r6	1.602
2	2021.11.25	21:31:49	112	inanimate/lifts.jpg	false	true	r2	1.639
2	2021.11.25	21:31:49	113	inanimate/resigned.jpg	false	true	r2	2.696
2	2021.11.25	21:31:49	114	social/whistle.jpg	true	true	r3	3.15
2	2021.11.25	21:31:49	115	inanimate/receptions.jpg	false	true	r6	2.362
2	2021.11.25	21:31:49	116	inanimate/enlightened.jpg	true	true	r5	1.47
2	2021.11.25	21:31:49	117	inanimate/trails.jpg	false	true	r4	2.281
2	2021.11.25	21:31:49	118	inanimate/aristocracy.jpg	true	true	r5	2.569
2	2021.11.25	21:31:49	119	social/smallholders.jpg	true	true	r3	2.803
2	2021.11.25	21:31:49	120	social/russet.jpg	false	true	r2	1.363
2	2021.11.25	21:31:49	121	social/fragrant.jpg	true	true	r5	1.455
2	2021.11.25	21:31:49	122	social/mustered.jpg	false	true	r4	2.689
2	2021.11.25	21:31:49	123	social/castor.jpg	true	true	r3	1.758
2	2021.11.25	21:31:49	124	inanimate/chopping.jpg	false	true	r4	1.809
2	2021.11.25	21:31:49	125	inanimate/diamonds.jpg	false	true	r2	2.282
2	2021.11.25	21:31:49	126	social/nicotine.jpg	false	true	r4	1.573
2	2021.11.25	21:31:49	127	social/wharf.jpg	false	true	r5	1.628
2	2021.11.25	21:31:49	128	social/knitters.jpg	false	true	r3	2.144
2	2021.11.25	21:31:49	129	inanimate/observational.jpg	false	true	r3	2.735
2	2021.11.25	21:31:49	130	social/buses.jpg	true	true	r4	1.789
2	2021.11.25	21:31:49	131	social/jews.jpg	true	true	r2	1.375
2	2021.11.25	21:31:49	132	social/aprons.jpg	true	true	r3	2.579
2	2021.11.25	21:31:49	133	social/detecting.jpg	true	true	r4	1.381
2	2021.11.25	21:31:49	134	inanimate/altars.jpg	true	true	r4	1.142
2	2021.11.25	21:31:49	135	inanimate/fattening.jpg	true	true	r3	1.911
2	2021.11.25	21:31:49	136	inanimate/wanderer.jpg	false	true	r4	1.469
2	2021.11.25	21:31:49	137	inanimate/fragrant.jpg	true	true	r4	1.139
2	2021.11.25	21:31:49	138	social/resigned.jpg	false	true	r3	3.039
2	2021.11.25	21:31:49	139	social/deteriorating.jpg	false	true	r4	1.997
2	2021.11.25	21:31:49	140	inanimate/vanilla.jpg	true	true	r5	2.038
2	2021.11.25	21:31:49	141	social/departmental.jpg	false	true	r5	1.34
2	2021.11.25	21:31:49	142	social/wear.jpg	false	true	r4	2.263
2	2021.11.25	21:31:49	143	inanimate/ethnic.jpg	false	true	r5	1.579
2	2021.11.25	21:31:49	144	social/vanilla.jpg	true	true	r4	2.324
2	2021.11.25	21:31:49	145	social/suction.jpg	true	true	r3	1.391
2	2021.11.25	21:31:49	146	inanimate/straw.jpg	true	true	r3	1.198
2	2021.11.25	21:31:49	147	social/droning.jpg	true	true	r2	1.565
2	2021.11.25	21:31:49	148	inanimate/undercarriage.jpg	false	true	r1	3.447
2	2021.11.25	21:31:49	149	inanimate/budding.jpg	true	true	r4	1.975
2	2021.11.25	21:31:49	150	social/solids.jpg	false	true	r3	1.353
2	2021.11.25	21:31:49	151	inanimate/allotments.jpg	true	true	r4	1.432
2	2021.11.25	21:31:49	152	social/drummers.jpg	true	true	r4	1.609
2	2021.11.25	21:31:49	153	social/desert.jpg	true	true	r4	2.423
2	2021.11.25	21:31:49	154	social/lifts.jpg	true	true	r2	1.493
2	2021.11.25	21:31:49	155	inanimate/infected.jpg	true	true	r1	1.309
2	2021.11.25	21:31:49	156	social/living.jpg	true	true	r4	2.225
2	2021.11.25	21:31:49	157	inanimate/wharf.jpg	false	true	r3	1.881
2	2021.11.25	21:31:49	158	inanimate/saloon.jpg	true	true	r5	2.058
2	2021.11.25	21:31:49	159	social/chopping.jpg	false	true	r4	2.226
2	2021.11.25	21:31:49	160	inanimate/russet.jpg	false	true	r5	1.415
2	2021.11.25	21:31:49	161	social/saloon.jpg	false	true	r5	1.355
2	2021.11.25	21:31:49	162	inanimate/contractor.jpg	true	true	r5	1.565
2	2021.11.25	21:31:49	163	inanimate/wiry.jpg	true	true	r4	1.926
2	2021.11.25	21:31:49	164	social/fountain.jpg	true	true	r1	1.517
2	2021.11.25	21:31:49	165	inanimate/living.jpg	false	true	r5	1.393
2	2021.11.25	21:31:49	166	inanimate/departmental.jpg	true	true	r5	1.48
2	2021.11.25	21:31:49	167	social/budding.jpg	false	true	r4	2.357
2	2021.11.25	21:31:49	168	social/wiry.jpg	false	true	r1	1.312
2	2021.11.25	21:31:49	169	social/depressing.jpg	true	true	r3	1.941
2	2021.11.25	21:31:49	170	social/allotments.jpg	false	true	r1	1.184
2	2021.11.25	21:31:49	171	inanimate/wear.jpg	false	true	r3	1.299
2	2021.11.25	21:31:49	172	inanimate/inhabited.jpg	true	true	r5	1.045
2	2021.11.25	21:31:49	173	social/observational.jpg	false	true	r4	1.311
2	2021.11.25	21:31:49	174	inanimate/simulators.jpg	false	true	r3	1.233
2	2021.11.25	21:31:49	175	social/trails.jpg	true	true	r3	1.247
2	2021.11.25	21:31:49	176	social/water.jpg	false	true	r6	1.374
2	2021.11.25	21:31:49	177	social/diamonds.jpg	false	true	r2	2.088
2	2021.11.25	21:31:49	178	social/veranda.jpg	false	true	r3	1.294
2	2021.11.25	21:31:49	179	inanimate/smallholders.jpg	true	true	r4	1.348
2	2021.11.25	21:31:49	180	inanimate/runaway.jpg	false	true	r5	1.895
2	2021.11.25	21:31:49	181	inanimate/pillow.jpg	false	true	r4	3.453
2	2021.11.25	21:31:49	182	inanimate/glittering.jpg	false	true	r2	1.828
2	2021.11.25	21:31:49	183	inanimate/aprons.jpg	false	true	r4	1.483
2	2021.11.25	21:31:49	184	social/enlightened.jpg	true	true	r4	1.614
2	2021.11.25	21:31:49	185	social/closely.jpg	false	true	r4	1.618
2	2021.11.25	21:31:49	186	social/burials.jpg	true	true	r3	2.083
2	2021.11.25	21:31:49	187	inanimate/jews.jpg	false	true	r2	1.163
2	2021.11.25	21:31:49	188	social/aristocracy.jpg	true	true	r4	1.304
2	2021.11.25	21:31:49	189	social/inmates.jpg	true	true	r1	1.439
2	2021.11.25	21:31:49	190	social/lager.jpg	true	true	r3	1.384
2	2021.11.25	21:31:49	191	inanimate/tides.jpg	true	true	r4	1.96
2	2021.11.25	21:31:49	192	inanimate/mastering.jpg	true	true	r4	1.689
2	2021.11.25	21:31:49	193	inanimate/eroding.jpg	true	true	r5	1.598
2	2021.11.25	21:31:49	194	inanimate/detecting.jpg	false	true	r2	1.373
2	2021.11.25	21:31:49	195	inanimate/projecting.jpg	true	true	r4	1.526
2	2021.11.25	21:31:49	196	inanimate/fountain.jpg	false	true	r2	1.737
2	2021.11.25	21:31:49	197	inanimate/suction.jpg	false	true	r3	1.452
2	2021.11.25	21:31:49	198	social/manufacturing.jpg	true	true	r3	1.508
2	2021.11.25	21:31:49	199	social/retrial.jpg	true	true	r4	3.928
2	2021.11.25	21:31:49	200	social/cramming.jpg	true	true	r4	1.155
2	2021.11.25	21:31:49	201	social/simulators.jpg	true	true	r3	1.622
2	2021.11.25	21:31:49	202	social/eroding.jpg	false	true	r3	0.998
2	2021.11.25	21:31:49	203	social/cake.jpg	true	true	r3	6.63
2	2021.11.25	21:31:49	204	social/discoloured.jpg	true	true	r5	1.359
2	2021.11.25	21:31:49	205	inanimate/burials.jpg	true	true	r4	1.31
2	2021.11.25	21:31:49	206	social/altars.jpg	false	true	r3	1.745
2	2021.11.25	21:31:49	207	social/gentle.jpg	true	true	r1	2.085
2	2021.11.25	21:31:49	208	social/car.jpg	false	true	r3	2.163
2	2021.11.25	21:31:49	209	inanimate/restraint.jpg	true	true	r2	1.523
2	2021.11.25	21:31:49	210	inanimate/nicotine.jpg	false	true	r3	2.113
2	2021.11.25	21:31:49	211	social/wave.jpg	false	true	r4	1.441
2	2021.11.25	21:31:49	212	inanimate/veranda.jpg	true	true	r4	1.555
2	2021.11.25	21:31:49	213	inanimate/closely.jpg	false	true	r3	1.221
2	2021.11.25	21:31:49	214	inanimate/depressing.jpg	false	true	r5	1.572
2	2021.11.25	21:31:49	215	social/receptions.jpg	false	true	r4	2.53
2	2021.11.25	21:31:49	216	inanimate/discoloured.jpg	false	true	r1	1.283
2	2021.11.25	21:31:49	217	social/tides.jpg	true	true	r3	1.413
2	2021.11.25	21:31:49	218	social/uneven.jpg	false	true	r1	1.218
2	2021.11.25	21:31:49	219	social/projecting.jpg	false	true	r4	2.026
2	2021.11.25	21:31:49	220	social/pillow.jpg	true	true	r4	1.362
2	2021.11.25	21:31:49	221	inanimate/international.jpg	true	true	r5	1.228
2	2021.11.25	21:31:49	222	inanimate/cramming.jpg	false	true	r5	1.097
2	2021.11.25	21:31:49	223	social/mastering.jpg	false	true	r4	3.838
2	2021.11.25	21:31:49	224	inanimate/drummers.jpg	false	true	r4	2.135
2	2021.11.25	21:31:49	225	social/fattening.jpg	true	true	r3	1.928
2	2021.11.25	21:31:49	226	inanimate/wave.jpg	true	true	r6	2.163
2	2021.11.25	21:31:49	227	social/glittering.jpg	true	true	r5	2.087
2	2021.11.25	21:31:49	228	inanimate/icelandic.jpg	false	true	r6	1.718
2	2021.11.25	21:31:49	229	inanimate/manufacturing.jpg	false	true	r5	2.444
2	2021.11.25	21:31:49	230	social/icelandic.jpg	true	true	r3	1.446
2	2021.11.25	21:31:49	231	social/inhabited.jpg	true	true	r2	1.18
2	2021.11.25	21:31:49	232	inanimate/stagecoach.jpg	true	true	r3	1.647
2	2021.11.25	21:31:49	233	social/restraint.jpg	false	true	r4	2.456
2	2021.11.25	21:31:49	234	inanimate/cake.jpg	true	true	r5	1.566
2	2021.11.25	21:31:49	235	inanimate/droning.jpg	false	true	r4	1.327
2	2021.11.25	21:31:49	236	social/straw.jpg	false	true	r4	1.274
2	2021.11.25	21:31:49	237	inanimate/clambering.jpg	false	true	r3	1.274
2	2021.11.25	21:31:49	238	social/undercarriage.jpg	false	true	r4	1.168
2	2021.11.25	21:31:49	239	inanimate/deteriorating.jpg	true	true	r4	1.675
2	2021.11.25	21:31:49	240	inanimate/solids.jpg	true	true	r5	1.647
2	2021.11.25	21:31:49	241	social/ethnic.jpg	true	true	r5	1.249
2	2021.11.25	21:31:49	242	social/infected.jpg	true	true	r5	1.259
2	2021.11.25	21:31:49	243	inanimate/buses.jpg	true	true	r4	3.421
2	2021.11.25	21:31:49	244	inanimate/mustered.jpg	true	true	r6	1.844
2	2021.11.25	21:31:49	245	social/graduated.jpg	false	true	r6	1.041
2	2021.11.25	21:31:49	246	inanimate/graduated.jpg	false	true	r6	1.612
2	2021.11.25	21:31:49	247	inanimate/inmates.jpg	true	true	r4	1.852
2	2021.11.25	21:31:49	248	inanimate/irretrievably.jpg	true	true	r3	1.238
2	2021.11.25	21:31:49	249	inanimate/knitters.jpg	true	true	r4	1.211
2	2021.11.25	21:31:49	250	inanimate/retrial.jpg	true	true	r4	1.123
2	2021.11.25	21:31:49	251	inanimate/lager.jpg	false	true	r3	5.578
2	2021.11.25	21:31:49	252	inanimate/desert.jpg	true	true	r5	1.298
2	2021.11.25	21:31:49	253	social/contractor.jpg	true	true	r5	1.303
2	2021.11.25	21:31:49	254	inanimate/car.jpg	true	true	r2	1.662
2	2021.11.25	21:31:49	255	inanimate/uneven.jpg	true	true	r4	1.413
2	2021.11.25	21:31:49	256	social/stagecoach.jpg	true	true	r4	1.156
2	2021.11.25	21:31:49	257	social/clambering.jpg	true	true	r4	1.645
2	2021.11.25	21:31:49	258	inanimate/water.jpg	false	true	r6	1.393
2	2021.11.25	21:31:49	259	social/vocals.jpg	true	true	r4	1.458
2	2021.11.25	21:31:49	260	social/irretrievably.jpg	false	true	r3	3.235
2	2021.11.25	21:31:49	261	inanimate/vocals.jpg	false	true	r4	2.022
2	2021.11.25	21:31:49	262	social/international.jpg	false	true	r4	6.258
2	2021.11.25	21:31:49	263	social/wanderer.jpg	true	true	r2	1.68
2	2021.11.25	21:31:49	264	inanimate/castor.jpg	false	true	r6	1.416
2	2021.11.25	21:31:49	265	inanimate/whistle.jpg	true	true	r3	1.37
2	2021.11.25	21:31:49	266	social/runaway.jpg	true	true	r2	1.249
2	2021.11.25	21:31:49	267	inanimate/gentle.jpg	false	true	r6	2.8
2	2021.11.25	21:31:49	268	inanimate/lifts.jpg	true	true	r2	1.583
2	2021.11.25	21:31:49	269	inanimate/resigned.jpg	true	true	r2	1.213
2	2021.11.25	21:31:49	270	social/whistle.jpg	false	true	r3	2.766
2	2021.11.25	21:31:49	271	inanimate/receptions.jpg	true	true	r6	1.554
2	2021.11.25	21:31:49	272	inanimate/enlightened.jpg	false	true	r6	1.125
2	2021.11.25	21:31:49	273	inanimate/trails.jpg	true	true	r3	1.466
2	2021.11.25	21:31:49	274	inanimate/aristocracy.jpg	false	true	r5	1.351
2	2021.11.25	21:31:49	275	social/smallholders.jpg	false	true	r3	1.922
2	2021.11.25	21:31:49	276	social/russet.jpg	true	true	r2	2.949
2	2021.11.25	21:31:49	277	social/fragrant.jpg	false	true	r5	1.435
2	2021.11.25	21:31:49	278	social/mustered.jpg	true	true	r5	1.159
2	2021.11.25	21:31:49	279	social/castor.jpg	false	true	r4	2.107
2	2021.11.25	21:31:49	280	inanimate/chopping.jpg	true	true	r3	2.116
2	2021.11.25	21:31:49	281	inanimate/diamonds.jpg	true	true	r2	1.813
2	2021.11.25	21:31:49	282	social/nicotine.jpg	true	true	r5	1.316
2	2021.11.25	21:31:49	283	social/wharf.jpg	true	true	r6	1.493
2	2021.11.25	21:31:49	284	social/knitters.jpg	true	true	r2	1.441
2	2021.11.25	21:31:49	285	inanimate/observational.jpg	true	true	r2	1.283
2	2021.11.25	21:31:49	286	social/buses.jpg	false	true	r4	2.474
2	2021.11.25	21:31:49	287	social/jews.jpg	false	true	r2	2.089
2	2021.11.25	21:31:49	288	social/aprons.jpg	false	true	r3	1.5
2	2021.11.25	21:31:49	289	social/detecting.jpg	false	true	r4	2.115
2	2021.11.25	21:31:49	290	inanimate/altars.jpg	false	true	r3	2.357
2	2021.11.25	21:31:49	291	inanimate/fattening.jpg	false	true	r2	1.427
2	2021.11.25	21:31:49	292	inanimate/wanderer.jpg	true	true	r4	2.094
2	2021.11.25	21:31:49	293	inanimate/fragrant.jpg	false	true	r4	1.36
2	2021.11.25	21:31:49	294	social/resigned.jpg	true	true	r4	1.731
2	2021.11.25	21:31:49	295	social/deteriorating.jpg	true	true	r4	1.463
2	2021.11.25	21:31:49	296	inanimate/vanilla.jpg	false	true	r6	2.237
2	2021.11.25	21:31:49	297	social/departmental.jpg	true	true	r6	2.01
2	2021.11.25	21:31:49	298	social/wear.jpg	true	true	r5	1.43
2	2021.11.25	21:31:49	299	inanimate/ethnic.jpg	true	true	r6	1.545
2	2021.11.25	21:31:49	300	social/vanilla.jpg	false	true	r4	1.751
2	2021.11.25	21:31:49	301	social/suction.jpg	false	true	r3	2.107
2	2021.11.25	21:31:49	302	inanimate/straw.jpg	false	true	r2	2.056
2	2021.11.25	21:31:49	303	social/droning.jpg	false	true	r1	3.734
2	2021.11.25	21:31:49	304	inanimate/undercarriage.jpg	true	true	r2	1.962
2	2021.11.25	21:31:49	305	inanimate/budding.jpg	false	true	r4	2.163
2	2021.11.25	21:31:49	306	social/solids.jpg	true	true	r3	2.678
2	2021.11.25	21:31:49	307	inanimate/allotments.jpg	false	true	r3	1.082
2	2021.11.25	21:31:49	308	social/drummers.jpg	false	true	r5	2.357
2	2021.11.25	21:31:49	309	social/desert.jpg	false	true	r4	2.886
2	2021.11.25	21:31:49	310	social/lifts.jpg	false	true	r2	1.677
2	2021.11.25	21:31:49	311	inanimate/infected.jpg	false	true	r1	1.294
2	2021.11.25	21:31:49	312	social/living.jpg	false	true	r5	1.35
num	date	subjStartTime	trialNum	stimName	mirrored	inView	response	rt
3	2021.11.25	21:44:00	1	inanimate/lager.jpg	true	true	r2	4.372
3	2021.11.25	21:44:00	2	inanimate/burials.jpg	false	true	r2	3.666
3	2021.11.25	21:44:00	3	social/infected.jpg	true	true	r1	1.479
3	2021.11.25	21:44:00	4	social/contractor.jpg	false	true	r4	3.506
3	2021.11.25	21:44:00	5	inanimate/whistle.jpg	true	true	r1	1.758
3	2021.11.25	21:44:00	6	social/tides.jpg	true	true	r6	1.47
3	2021.11.25	21:44:00	7	inanimate/observational.jpg	false	true	r4	4.67
3	2021.11.25	21:44:00	8	social/pillow.jpg	true	true	r3	3.858
3	2021.11.25	21:44:00	9	inanimate/wharf.jpg	false	true	r5	2.862
3	2021.11.25	21:44:00	10	inanimate/uneven.jpg	true	true	r2	1.568
3	2021.11.25	21:44:00	11	social/trails.jpg	true	true	r5	2.265
3	2021.11.25	21:44:00	12	social/closely.jpg	false	true	r1	1.18
3	2021.11.25	21:44:00	13	social/altars.jpg	true	true	r5	2.438
3	2021.11.25	21:44:00	14	social/nicotine.jpg	false	true	r4	5.08
3	2021.11.25	21:44:00	15	social/fragrant.jpg	true	true	r5	2.143
3	2021.11.25	21:44:00	16	social/veranda.jpg	false	true	r4	2.427
3	2021.11.25	21:44:00	17	social/smallholders.jpg	true	true	r4	3.528
3	2021.11.25	21:44:00	18	social/vanilla.jpg	true	true	r3	4.028
3	2021.11.25	21:44:00	19	inanimate/mustered.jpg	true	true	r6	1.649
3	2021.11.25	21:44:00	20	inanimate/receptions.jpg	true	true	r6	3.597
3	2021.11.25	21:44:00	21	social/retrial.jpg	true	true	r6	1.915
3	2021.11.25	21:44:00	22	inanimate/irretrievably.jpg	false	true	r1	1.969
3	2021.11.25	21:44:00	23	inanimate/simulators.jpg	false	true	r2	3.765
3	2021.11.25	21:44:00	24	inanimate/chopping.jpg	false	true	r2	3.824
3	2021.11.25	21:44:00	25	social/uneven.jpg	true	true	r2	3.641
3	2021.11.25	21:44:00	26	inanimate/gentle.jpg	false	true	r4	1.62
3	2021.11.25	21:44:00	27	social/deteriorating.jpg	false	true	r4	3.226
3	2021.11.25	21:44:00	28	social/lager.jpg	false	true	r4	1.814
3	2021.11.25	21:44:00	29	inanimate/suction.jpg	false	true	r2	2.129
3	2021.11.25	21:44:00	30	social/aprons.jpg	false	true	r5	2.895
3	2021.11.25	21:44:00	31	inanimate/russet.jpg	true	true	r3	3.752
3	2021.11.25	21:44:00	32	inanimate/closely.jpg	true	true	r1	1.388
3	2021.11.25	21:44:00	33	inanimate/deteriorating.jpg	true	true	r1	1.257
3	2021.11.25	21:44:00	34	social/cramming.jpg	true	true	r3	7.786
3	2021.11.25	21:44:00	35	social/living.jpg	true	true	r3	1.994
3	2021.11.25	21:44:00	36	social/suction.jpg	true	true	r4	2.011
3	2021.11.25	21:44:00	37	social/depressing.jpg	false	true	r2	2.195
3	2021.11.25	21:44:00	38	inanimate/nicotine.jpg	true	true	r2	3.209
3	2021.11.25	21:44:00	39	inanimate/saloon.jpg	false	true	r3	1.548
3	2021.11.25	21:44:00	40	inanimate/droning.jpg	false	true	r3	1.736
3	2021.11.25	21:44:00	41	inanimate/stagecoach.jpg	false	true	r5	3.391
3	2021.11.25	21:44:00	42	social/vocals.jpg	false	true	r5	2.934
3	2021.11.25	21:44:00	43	social/droning.jpg	true	true	r4	2.349
3	2021.11.25	21:44:00	44	inanimate/manufacturing.jpg	false	true	r1	2.255
3	2021.11.25	21:44:00	45	inanimate/desert.jpg	false	true	r6	1.759
3	2021.11.25	21:44:00	46	inanimate/enlightened.jpg	false	true	r6	0.927
3	2021.11.25	21:44:00	47	social/solids.jpg	true	true	r5	2.028
3	2021.11.25	21:44:00	48	social/glittering.jpg	false	true	r2	4.48
3	2021.11.25	21:44:00	49	inanimate/mastering.jpg	true	true	r3	2.798
3	2021.11.25	21:44:00	50	inanimate/allotments.jpg	true	true	r4	1.535
3	2021.11.25	21:44:00	51	social/russet.jpg	true	true	r3	1.455
3	2021.11.25	21:44:00	52	social/allotments.jpg	false	true	r2	2.667
3	2021.11.25	21:44:00	53	social/fountain.jpg	false	true	r3	2.655
3	2021.11.25	21:44:00	54	social/wear.jpg	true	true	r3	2.253
3	2021.11.25	21:44:00	55	social/eroding.jpg	false	true	r3	2.293
3	2021.11.25	21:44:00	56	inanimate/cramming.jpg	true	true	r1	2.495
3	2021.11.25	21:44:00	57	social/wanderer.jpg	true	true	r2	3.038
3	2021.11.25	21:44:00	58	social/icelandic.jpg	false	true	r4	2.37
3	2021.11.25	21:44:00	59	social/graduated.jpg	false	true	r6	4.543
3	2021.11.25	21:44:00	60	social/jews.jpg	false	true	r3	4.056
3	2021.11.25	21:44:00	61	inanimate/graduated.jpg	true	true	r6	2.869
3	2021.11.25	21:44:00	62	inanimate/restraint.jpg	false	true	r2	3.978
3	2021.11.25	21:44:00	63	inanimate/glittering.jpg	false	true	r3	2.213
3	2021.11.25	21:44:00	64	social/car.jpg	true	true	r4	4.921
3	2021.11.25	21:44:00	65	social/irretrievably.jpg	true	true	r1	1.996
3	2021.11.25	21:44:00	66	social/stagecoach.jpg	false	true	r5	4.948
3	2021.11.25	21:44:00	67	social/runaway.jpg	true	true	r4	2.203
3	2021.11.25	21:44:00	68	inanimate/wiry.jpg	false	true	r2	2.524
3	2021.11.25	21:44:00	69	inanimate/veranda.jpg	false	true	r5	1.872
3	2021.11.25	21:44:00	70	inanimate/water.jpg	true	true	r6	1.777
3	2021.11.25	21:44:00	71	social/restraint.jpg	false	true	r2	3.791
3	2021.11.25	21:44:00	72	social/inhabited.jpg	true	true	r4	3.287
3	2021.11.25	21:44:00	73	social/diamonds.jpg	true	true	r6	1.649
3	2021.11.25	21:44:00	74	social/inmates.jpg	false	true	r2	3.52
3	2021.11.25	21:44:00	75	social/international.jpg	false	true	r5	4.03
3	2021.11.25	21:44:00	76	social/clambering.jpg	false	true	r6	1.252
3	2021.11.25	21:44:00	77	inanimate/drummers.jpg	true	true	r4	4.882
3	2021.11.25	21:44:00	78	inanimate/fountain.jpg	true	true	r5	1.638
3	2021.11.25	21:44:00	79	inanimate/pillow.jpg	false	true	r6	2.522
3	2021.11.25	21:44:00	80	social/wiry.jpg	false	true	r2	1.944
3	2021.11.25	21:44:00	81	social/simulators.jpg	true	true	r4	4.516
3	2021.11.25	21:44:00	82	social/departmental.jpg	true	true	r3	5.63
3	2021.11.25	21:44:00	83	inanimate/trails.jpg	false	true	r5	1.897
3	2021.11.25	21:44:00	84	social/receptions.jpg	true	true	r5	2.161
3	2021.11.25	21:44:00	85	inanimate/castor.jpg	true	true	r5	3.301
3	2021.11.25	21:44:00	86	inanimate/detecting.jpg	false	true	r4	2.83
3	2021.11.25	21:44:00	87	inanimate/wave.jpg	false	true	r6	3.332
3	2021.11.25	21:44:00	88	social/saloon.jpg	false	true	r3	4.951
3	2021.11.25	21:44:00	89	social/chopping.jpg	false	true	r4	1.81
3	2021.11.25	21:44:00	90	social/enlightened.jpg	false	true	r3	3.247
3	2021.11.25	21:44:00	91	social/discoloured.jpg	false	true	r5	2.281
3	2021.11.25	21:44:00	92	inanimate/cake.jpg	false	true	r6	2.834
3	2021.11.25	21:44:00	93	social/desert.jpg	true	true	r6	2.489
3	2021.11.25	21:44:00	94	inanimate/vocals.jpg	true	true	r1	1.609
3	2021.11.25	21:44:00	95	inanimate/inmates.jpg	true	true	r2	2.843
3	2021.11.25	21:44:00	96	inanimate/buses.jpg	true	true	r2	1.702
3	2021.11.25	21:44:00	97	inanimate/ethnic.jpg	false	true	r5	1.606
3	2021.11.25	21:44:00	98	inanimate/discoloured.jpg	true	true	r1	1.976
3	2021.11.25	21:44:00	99	inanimate/inhabited.jpg	false	true	r6	2.129
3	2021.11.25	21:44:00	100	social/aristocracy.jpg	false	true	r5	2.336
3	2021.11.25	21:44:00	101	inanimate/tides.jpg	false	true	r5	2.06
3	2021.11.25	21:44:00	102	inanimate/altars.jpg	false	true	r4	3.771
3	2021.11.25	21:44:00	103	social/ethnic.jpg	false	true	r5	1.905
3	2021.11.25	21:44:00	104	inanimate/aristocracy.jpg	false	true	r6	1.518
3	2021.11.25	21:44:00	105	inanimate/departmental.jpg	true	true	r4	5.464
3	2021.11.25	21:44:00	106	inanimate/car.jpg	true	true	r3	2.401
3	2021.11.25	21:44:00	107	social/fattening.jpg	true	true	r4	2.212
3	2021.11.25	21:44:00	108	inanimate/depressing.jpg	false	true	r1	1.19
3	2021.11.25	21:44:00	109	social/knitters.jpg	false	true	r5	1.706
3	2021.11.25	21:44:00	110	social/projecting.jpg	false	true	r3	5.756
3	2021.11.25	21:44:00	111	social/manufacturing.jpg	false	true	r1	2.495
3	2021.11.25	21:44:00	112	inanimate/solids.jpg	true	true	r6	1.538
3	2021.11.25	21:44:00	113	social/water.jpg	false	true	r4	2.637
3	2021.11.25	21:44:00	114	inanimate/runaway.jpg	true	true	r4	3.543
3	2021.11.25	21:44:00	115	social/lifts.jpg	false	true	r4	3.193
3	2021.11.25	21:44:00	116	social/undercarriage.jpg	false	true	r3	3.989
3	2021.11.25	21:44:00	117	inanimate/resigned.jpg	false	true	r4	1.567
3	2021.11.25	21:44:00	118	social/drummers.jpg	true	true	r3	2.227
3	2021.11.25	21:44:00	119	inanimate/international.jpg	true	true	r5	1.569
3	2021.11.25	21:44:00	120	inanimate/eroding.jpg	true	true	r5	1.199
3	2021.11.25	21:44:00	121	social/gentle.jpg	true	true	r5	5.339
3	2021.11.25	21:44:00	122	inanimate/jews.jpg	true	true	r5	2.804
3	2021.11.25	21:44:00	123	social/observational.jpg	true	true	r5	2.564
3	2021.11.25	21:44:00	124	social/castor.jpg	true	true	r4	2.521
3	2021.11.25	21:44:00	125	inanimate/knitters.jpg	false	true	r3	6.974
3	2021.11.25	21:44:00	126	inanimate/living.jpg	false	true	r5	2.842
3	2021.11.25	21:44:00	127	inanimate/clambering.jpg	true	true	r5	2.234
3	2021.11.25	21:44:00	128	social/burials.jpg	false	true	r3	2.938
3	2021.11.25	21:44:00	129	inanimate/aprons.jpg	true	true	r2	3.929
3	2021.11.25	21:44:00	130	inanimate/projecting.jpg	false	true	r4	2.092
3	2021.11.25	21:44:00	131	inanimate/vanilla.jpg	false	true	r4	2.692
3	2021.11.25	21:44:00	132	social/mustered.jpg	false	true	r4	3.268
3	2021.11.25	21:44:00	133	social/resigned.jpg	true	true	r3	3.351
3	2021.11.25	21:44:00	134	inanimate/wanderer.jpg	true	true	r5	1.495
3	2021.11.25	21:44:00	135	social/detecting.jpg	false	true	r3	2.338
3	2021.11.25	21:44:00	136	inanimate/contractor.jpg	false	true	r3	0.002
3	2021.11.25	21:44:00	137	inanimate/straw.jpg	true	true	r3	2.946
3	2021.11.25	21:44:00	138	social/cake.jpg	false	true	r2	3.675
3	2021.11.25	21:44:00	139	inanimate/smallholders.jpg	true	true	r4	6.27
3	2021.11.25	21:44:00	140	inanimate/lifts.jpg	false	true	r3	2.96
3	2021.11.25	21:44:00	141	social/budding.jpg	true	true	r5	1.556
3	2021.11.25	21:44:00	142	inanimate/fragrant.jpg	true	true	r4	4.339
3	2021.11.25	21:44:00	143	social/wharf.jpg	true	true	r5	2.105
3	2021.11.25	21:44:00	144	inanimate/icelandic.jpg	true	true	r6	1.399
3	2021.11.25	21:44:00	145	inanimate/fattening.jpg	false	true	r2	1.927
3	2021.11.25	21:44:00	146	inanimate/infected.jpg	true	true	r2	2.357
3	2021.11.25	21:44:00	147	inanimate/undercarriage.jpg	true	true	r3	3.189
3	2021.11.25	21:44:00	148	social/whistle.jpg	true	true	r5	1.539
3	2021.11.25	21:44:00	149	social/buses.jpg	false	true	r4	3.195
3	2021.11.25	21:44:00	150	inanimate/wear.jpg	true	true	r1	2.134
3	2021.11.25	21:44:00	151	social/mastering.jpg	true	true	r3	8.386
3	2021.11.25	21:44:00	152	social/wave.jpg	true	true	r5	4.578
3	2021.11.25	21:44:00	153	inanimate/diamonds.jpg	false	true	r6	1.056
3	2021.11.25	21:44:00	154	social/straw.jpg	true	true	r4	3.184
3	2021.11.25	21:44:00	155	inanimate/budding.jpg	true	true	r1	2.084
3	2021.11.25	21:44:00	156	inanimate/retrial.jpg	false	true	r5	2.438
3	2021.11.25	21:44:00	157	inanimate/lager.jpg	false	true	r3	4.226
3	2021.11.25	21:44:00	158	inanimate/burials.jpg	true	true	r2	1.685
3	2021.11.25	21:44:00	159	social/infected.jpg	false	true	r2	2.774
3	2021.11.25	21:44:00	160	social/contractor.jpg	true	true	r4	1.673
3	2021.11.25	21:44:00	161	inanimate/whistle.jpg	false	true	r1	1.234
3	2021.11.25	21:44:00	162	social/tides.jpg	false	true	r5	3.093
3	2021.11.25	21:44:00	163	inanimate/observational.jpg	true	true	r4	1.562
3	2021.11.25	21:44:00	164	social/pillow.jpg	false	true	r4	2.047
3	2021.11.25	21:44:00	165	inanimate/wharf.jpg	true	true	r5	3.922
3	2021.11.25	21:44:00	166	inanimate/uneven.jpg	false	true	r2	4.452
3	2021.11.25	21:44:00	167	social/trails.jpg	false	true	r3	2.121
3	2021.11.25	21:44:00	168	social/closely.jpg	true	true	r2	1.688
3	2021.11.25	21:44:00	169	social/altars.jpg	false	true	r5	2.625
3	2021.11.25	21:44:00	170	social/nicotine.jpg	true	true	r4	2.5
3	2021.11.25	21:44:00	171	social/fragrant.jpg	false	true	r5	1.921
3	2021.11.25	21:44:00	172	social/veranda.jpg	true	true	r5	9.962
3	2021.11.25	21:44:00	173	social/smallholders.jpg	false	true	r4	2.13
3	2021.11.25	21:44:00	174	social/vanilla.jpg	false	true	r3	4.142
3	2021.11.25	21:44:00	175	inanimate/mustered.jpg	false	true	r5	1.288
3	2021.11.25	21:44:00	176	inanimate/receptions.jpg	false	true	r5	5.501
3	2021.11.25	21:44:00	177	social/retrial.jpg	false	true	r5	2.223
3	2021.11.25	21:44:00	178	inanimate/irretrievably.jpg	true	true	r1	1.473
3	2021.11.25	21:44:00	179	inanimate/simulators.jpg	true	true	r2	2.919
3	2021.11.25	21:44:00	180	inanimate/chopping.jpg	true	true	r2	2.099
3	2021.11.25	21:44:00	181	social/uneven.jpg	false	true	r2	0.966
3	2021.11.25	21:44:00	182	inanimate/gentle.jpg	true	true	r4	3.142
3	2021.11.25	21:44:00	183	social/deteriorating.jpg	true	true	r3	1.932
3	2021.11.25	21:44:00	184	social/lager.jpg	true	true	r4	2.891
3	2021.11.25	21:44:00	185	inanimate/suction.jpg	true	true	r2	1.39
3	2021.11.25	21:44:00	186	social/aprons.jpg	true	true	r5	1.517
3	2021.11.25	21:44:00	187	inanimate/russet.jpg	false	true	r2	2.367
3	2021.11.25	21:44:00	188	inanimate/closely.jpg	false	true	r1	1.5
3	2021.11.25	21:44:00	189	inanimate/deteriorating.jpg	false	true	r1	1.084
3	2021.11.25	21:44:00	190	social/cramming.jpg	false	true	r3	2.243
3	2021.11.25	21:44:00	191	social/living.jpg	false	true	r3	3.128
3	2021.11.25	21:44:00	192	social/suction.jpg	false	true	r5	2.36
3	2021.11.25	21:44:00	193	social/depressing.jpg	true	true	r2	2.812
3	2021.11.25	21:44:00	194	inanimate/nicotine.jpg	false	true	r1	1.794
3	2021.11.25	21:44:00	195	inanimate/saloon.jpg	true	true	r3	1.77
3	2021.11.25	21:44:00	196	inanimate/droning.jpg	true	true	r3	2.594
3	2021.11.25	21:44:00	197	inanimate/stagecoach.jpg	true	true	r5	1.556
3	2021.11.25	21:44:00	198	social/vocals.jpg	true	true	r5	1.259
3	2021.11.25	21:44:00	199	social/droning.jpg	false	true	r4	1.801
3	2021.11.25	21:44:00	200	inanimate/manufacturing.jpg	true	true	r1	1.083
3	2021.11.25	21:44:00	201	inanimate/desert.jpg	true	true	r5	1.194
3	2021.11.25	21:44:00	202	inanimate/enlightened.jpg	true	true	r5	1.721
3	2021.11.25	21:44:00	203	social/solids.jpg	false	true	r5	1.605
3	2021.11.25	21:44:00	204	social/glittering.jpg	true	true	r3	2.601
3	2021.11.25	21:44:00	205	inanimate/mastering.jpg	false	true	r3	4.898
3	2021.11.25	21:44:00	206	inanimate/allotments.jpg	false	true	r4	1.616
3	2021.11.25	21:44:00	207	social/russet.jpg	false	true	r3	1.525
3	2021.11.25	21:44:00	208	social/allotments.jpg	true	true	r4	3.58
3	2021.11.25	21:44:00	209	social/fountain.jpg	true	true	r4	2.156
3	2021.11.25	21:44:00	210	social/wear.jpg	false	true	r4	1.694
3	2021.11.25	21:44:00	211	social/eroding.jpg	true	true	r4	1.244
3	2021.11.25	21:44:00	212	inanimate/cramming.jpg	false	true	r3	2.973
3	2021.11.25	21:44:00	213	social/wanderer.jpg	false	true	r3	3.912
3	2021.11.25	21:44:00	214	social/icelandic.jpg	true	true	r4	2.926
3	2021.11.25	21:44:00	215	social/graduated.jpg	true	true	r6	1.655
3	2021.11.25	21:44:00	216	social/jews.jpg	true	true	r3	2.926
3	2021.11.25	21:44:00	217	inanimate/graduated.jpg	false	true	r6	1.191
3	2021.11.25	21:44:00	218	inanimate/restraint.jpg	true	true	r2	2.72
3	2021.11.25	21:44:00	219	inanimate/glittering.jpg	true	true	r4	1.597
3	2021.11.25	21:44:00	220	social/car.jpg	false	true	r4	5.796
3	2021.11.25	21:44:00	221	social/irretrievably.jpg	false	true	r2	4.747
3	2021.11.25	21:44:00	222	social/stagecoach.jpg	true	true	r4	2.767
3	2021.11.25	21:44:00	223	social/runaway.jpg	false	true	r4	6.552
3	2021.11.25	21:44:00	224	inanimate/wiry.jpg	true	true	r2	2.961
3	2021.11.25	21:44:00	225	inanimate/veranda.jpg	true	true	r5	2.53
3	2021.11.25	21:44:00	226	inanimate/water.jpg	false	true	r5	2.223
3	2021.11.25	21:44:00	227	social/restraint.jpg	true	true	r2	1.902
3	2021.11.25	21:44:00	228	social/inhabited.jpg	false	true	r4	3.453
3	2021.11.25	21:44:00	229	social/diamonds.jpg	false	true	r5	4.435
3	2021.11.25	21:44:00	230	social/inmates.jpg	true	true	r2	2.311
3	2021.11.25	21:44:00	231	social/international.jpg	true	true	r5	3.163
3	2021.11.25	21:44:00	232	social/clambering.jpg	true	true	r6	1.481
3	2021.11.25	21:44:00	233	inanimate/drummers.jpg	false	true	r4	2.68
3	2021.11.25	21:44:00	234	inanimate/fountain.jpg	false	true	r5	1.542
3	2021.11.25	21:44:00	235	inanimate/pillow.jpg	true	true	r6	1.14
3	2021.11.25	21:44:00	236	social/wiry.jpg	true	true	r2	1.487
3	2021.11.25	21:44:00	237	social/simulators.jpg	false	true	r4	6.452
3	2021.11.25	21:44:00	238	social/departmental.jpg	false	true	r4	2.329
3	2021.11.25	21:44:00	239	inanimate/trails.jpg	true	true	r5	1.201
3	2021.11.25	21:44:00	240	social/receptions.jpg	false	true	r4	3.215
3	2021.11.25	21:44:00	241	inanimate/castor.jpg	false	true	r4	3.699
3	2021.11.25	21:44:00	242	inanimate/detecting.jpg	true	true	r4	3.167
3	2021.11.25	21:44:00	243	inanimate/wave.jpg	true	true	r6	2.251
3	2021.11.25	21:44:00	244	social/saloon.jpg	true	true	r3	1.985
3	2021.11.25	21:44:00	245	social/chopping.jpg	true	true	r4	1.652
3	2021.11.25	21:44:00	246	social/enlightened.jpg	true	true	r3	2.52
3	2021.11.25	21:44:00	247	social/discoloured.jpg	true	true	r5	1.5
3	2021.11.25	21:44:00	248	inanimate/cake.jpg	true	true	r5	0.904
3	2021.11.25	21:44:00	249	social/desert.jpg	false	true	r6	3.649
3	2021.11.25	21:44:00	250	inanimate/vocals.jpg	false	true	r1	1.265
3	2021.11.25	21:44:00	251	inanimate/inmates.jpg	false	true	r2	2.231
3	2021.11.25	21:44:00	252	inanimate/buses.jpg	false	true	r1	2.675
3	2021.11.25	21:44:00	253	inanimate/ethnic.jpg	true	true	r5	1.443
3	2021.11.25	21:44:00	254	inanimate/discoloured.jpg	false	true	r2	1.471
3	2021.11.25	21:44:00	255	inanimate/inhabited.jpg	true	true	r6	1.156
3	2021.11.25	21:44:00	256	social/aristocracy.jpg	true	true	r5	1.251
3	2021.11.25	21:44:00	257	inanimate/tides.jpg	true	true	r5	1.491
3	2021.11.25	21:44:00	258	inanimate/altars.jpg	true	true	r4	1.214
3	2021.11.25	21:44:00	259	social/ethnic.jpg	true	true	r4	1.589
3	2021.11.25	21:44:00	260	inanimate/aristocracy.jpg	true	true	r5	1.307
3	2021.11.25	21:44:00	261	inanimate/departmental.jpg	false	true	r4	3.94
3	2021.11.25	21:44:00	262	inanimate/car.jpg	false	true	r3	1.565
3	2021.11.25	21:44:00	263	social/fattening.jpg	false	true	r4	1.511
3	2021.11.25	21:44:00	264	inanimate/depressing.jpg	true	true	r1	1.098
3	2021.11.25	21:44:00	265	social/knitters.jpg	true	true	r5	2.04
3	2021.11.25	21:44:00	266	social/projecting.jpg	true	true	r4	2.043
3	2021.11.25	21:44:00	267	social/manufacturing.jpg	true	true	r2	3.143
3	2021.11.25	21:44:00	268	inanimate/solids.jpg	false	true	r6	1.141
3	2021.11.25	21:44:00	269	social/water.jpg	true	true	r5	1.079
3	2021.11.25	21:44:00	270	inanimate/runaway.jpg	false	true	r4	3.218
3	2021.11.25	21:44:00	271	social/lifts.jpg	true	true	r4	1.295
3	2021.11.25	21:44:00	272	social/undercarriage.jpg	true	true	r4	4.879
3	2021.11.25	21:44:00	273	inanimate/resigned.jpg	true	true	r2	4.418
3	2021.11.25	21:44:00	274	social/drummers.jpg	false	true	r4	1.707
3	2021.11.25	21:44:00	275	inanimate/international.jpg	false	true	r6	2.998
3	2021.11.25	21:44:00	276	inanimate/eroding.jpg	false	true	r5	1.015
3	2021.11.25	21:44:00	277	social/gentle.jpg	false	true	r5	1.472
3	2021.11.25	21:44:00	278	inanimate/jews.jpg	false	true	r4	1.476
3	2021.11.25	21:44:00	279	social/observational.jpg	false	true	r4	2.775
3	2021.11.25	21:44:00	280	social/castor.jpg	false	true	r4	3.748
3	2021.11.25	21:44:00	281	inanimate/knitters.jpg	true	true	r3	1.413
3	2021.11.25	21:44:00	282	inanimate/living.jpg	true	true	r4	4.458
3	2021.11.25	21:44:00	283	inanimate/clambering.jpg	false	true	r5	1.103
3	2021.11.25	21:44:00	284	social/burials.jpg	true	true	r3	2.39
3	2021.11.25	21:44:00	285	inanimate/aprons.jpg	false	true	r1	1.394
3	2021.11.25	21:44:00	286	inanimate/projecting.jpg	true	true	r4	2.134
3	2021.11.25	21:44:00	287	inanimate/vanilla.jpg	true	true	r4	1.528
3	2021.11.25	21:44:00	288	social/mustered.jpg	true	true	r4	1.326
3	2021.11.25	21:44:00	289	social/resigned.jpg	false	true	r3	5.007
3	2021.11.25	21:44:00	290	inanimate/wanderer.jpg	false	true	r5	2.387
3	2021.11.25	21:44:00	291	social/detecting.jpg	true	true	r4	3.685
3	2021.11.25	21:44:00	292	inanimate/contractor.jpg	true	true	r4	2.1
3	2021.11.25	21:44:00	293	inanimate/straw.jpg	false	true	r3	0.935
3	2021.11.25	21:44:00	294	social/cake.jpg	true	true	r3	1.092
3	2021.11.25	21:44:00	295	inanimate/smallholders.jpg	false	true	r5	3.946
3	2021.11.25	21:44:00	296	inanimate/lifts.jpg	true	true	r4	2.186
3	2021.11.25	21:44:00	297	social/budding.jpg	false	true	r5	1.319
3	2021.11.25	21:44:00	298	inanimate/fragrant.jpg	false	true	r4	2.175
3	2021.11.25	21:44:00	299	social/wharf.jpg	false	true	r5	2.411
3	2021.11.25	21:44:00	300	inanimate/icelandic.jpg	false	true	r6	1.141
3	2021.11.25	21:44:00	301	inanimate/fattening.jpg	true	true	r2	1.378
3	2021.11.25	21:44:00	302	inanimate/infected.jpg	false	true	r1	1.42
3	2021.11.25	21:44:00	303	inanimate/undercarriage.jpg	false	true	r2	1.462
3	2021.11.25	21:44:00	304	social/whistle.jpg	false	true	r5	1.905
3	2021.11.25	21:44:00	305	social/buses.jpg	true	true	r4	1.145
3	2021.11.25	21:44:00	306	inanimate/wear.jpg	false	true	r1	1.047
3	2021.11.25	21:44:00	307	social/mastering.jpg	false	true	r4	1.719
3	2021.11.25	21:44:00	308	social/wave.jpg	false	true	r5	2.124
3	2021.11.25	21:44:00	309	inanimate/diamonds.jpg	true	true	r6	0.987
3	2021.11.25	21:44:00	310	social/straw.jpg	false	true	r5	2.012
3	2021.11.25	21:44:00	311	inanimate/budding.jpg	false	true	r1	1.05
3	2021.11.25	21:44:00	312	inanimate/retrial.jpg	true	true	r5	1.143
num	date	subjStartTime	trialNum	stimName	mirrored	inView	response	rt
5	2021.11.25	22:07:57	1	inanimate/eroding.jpg	true	true	r4	5.904
5	2021.11.25	22:07:57	2	social/suction.jpg	true	true	r4	2.574
5	2021.11.25	22:07:57	3	social/resigned.jpg	false	true	r2	2.51
5	2021.11.25	22:07:57	4	social/enlightened.jpg	true	true	r1	1.406
5	2021.11.25	22:07:57	5	social/droning.jpg	true	true	r1	1.514
5	2021.11.25	22:07:57	6	inanimate/wanderer.jpg	true	true	r5	1.546
5	2021.11.25	22:07:57	7	inanimate/projecting.jpg	false	true	r2	3.218
5	2021.11.25	22:07:57	8	inanimate/simulators.jpg	true	true	r1	1.098
5	2021.11.25	22:07:57	9	social/manufacturing.jpg	true	true	r1	1.399
5	2021.11.25	22:07:57	10	social/diamonds.jpg	false	true	r1	1.554
5	2021.11.25	22:07:57	11	inanimate/observational.jpg	false	true	r1	1.13
5	2021.11.25	22:07:57	12	inanimate/trails.jpg	true	true	r5	1.285
5	2021.11.25	22:07:57	13	inanimate/graduated.jpg	true	true	r6	1.772
5	2021.11.25	22:07:57	14	inanimate/wiry.jpg	false	true	r2	1.713
5	2021.11.25	22:07:57	15	inanimate/buses.jpg	false	true	r2	1.424
5	2021.11.25	22:07:57	16	inanimate/allotments.jpg	false	true	r2	2.166
5	2021.11.25	22:07:57	17	inanimate/whistle.jpg	true	true	r1	1.372
5	2021.11.25	22:07:57	18	social/trails.jpg	true	true	r5	1.436
5	2021.11.25	22:07:57	19	inanimate/manufacturing.jpg	false	true	r2	1.734
5	2021.11.25	22:07:57	20	social/uneven.jpg	false	true	r1	1.341
5	2021.11.25	22:07:57	21	social/fountain.jpg	true	true	r3	2.99
5	2021.11.25	22:07:57	22	social/wharf.jpg	false	true	r5	1.236
5	2021.11.25	22:07:57	23	social/closely.jpg	true	true	r6	1.085
5	2021.11.25	22:07:57	24	social/contractor.jpg	false	true	r6	1.338
5	2021.11.25	22:07:57	25	social/russet.jpg	false	true	r3	4.244
5	2021.11.25	22:07:57	26	social/desert.jpg	true	true	r2	1.767
5	2021.11.25	22:07:57	27	inanimate/nicotine.jpg	true	true	r1	1.816
5	2021.11.25	22:07:57	28	inanimate/cramming.jpg	false	true	r2	1.219
5	2021.11.25	22:07:57	29	social/undercarriage.jpg	true	true	r3	1.92
5	2021.11.25	22:07:57	30	inanimate/detecting.jpg	true	true	r2	1.664
5	2021.11.25	22:07:57	31	social/knitters.jpg	false	true	r5	2.073
5	2021.11.25	22:07:57	32	inanimate/departmental.jpg	true	true	r6	1.385
5	2021.11.25	22:07:57	33	inanimate/wharf.jpg	false	true	r6	1.366
5	2021.11.25	22:07:57	34	inanimate/knitters.jpg	false	true	r1	1.841
5	2021.11.25	22:07:57	35	inanimate/depressing.jpg	true	true	r2	1.114
5	2021.11.25	22:07:57	36	social/international.jpg	true	true	r1	1.471
5	2021.11.25	22:07:57	37	inanimate/vocals.jpg	true	true	r1	0.982
5	2021.11.25	22:07:57	38	social/wanderer.jpg	false	true	r3	1.293
5	2021.11.25	22:07:57	39	inanimate/fragrant.jpg	false	true	r5	1.318
5	2021.11.25	22:07:57	40	inanimate/wear.jpg	false	true	r1	1.456
5	2021.11.25	22:07:57	41	social/glittering.jpg	false	true	r2	1.415
5	2021.11.25	22:07:57	42	social/lifts.jpg	true	true	r4	1.895
5	2021.11.25	22:07:57	43	social/infected.jpg	false	true	r2	2.087
5	2021.11.25	22:07:57	44	inanimate/veranda.jpg	true	true	r3	0.935
5	2021.11.25	22:07:57	45	inanimate/inmates.jpg	false	true	r1	1.163
5	2021.11.25	22:07:57	46	social/burials.jpg	false	true	r4	3.291
5	2021.11.25	22:07:57	47	social/fattening.jpg	false	true	r3	2.003
5	2021.11.25	22:07:57	48	inanimate/car.jpg	false	true	r1	1.751
5	2021.11.25	22:07:57	49	social/icelandic.jpg	false	true	r5	1.789
5	2021.11.25	22:07:57	50	inanimate/diamonds.jpg	true	true	r5	2.012
5	2021.11.25	22:07:57	51	social/budding.jpg	false	true	r5	1.954
5	2021.11.25	22:07:57	52	inanimate/infected.jpg	false	true	r1	2.016
5	2021.11.25	22:07:57	53	social/inmates.jpg	true	true	r2	1.247
5	2021.11.25	22:07:57	54	social/straw.jpg	false	true	r2	1.628
5	2021.11.25	22:07:57	55	inanimate/straw.jpg	true	true	r1	1.335
5	2021.11.25	22:07:57	56	inanimate/glittering.jpg	false	true	r1	1.054
5	2021.11.25	22:07:57	57	social/eroding.jpg	true	true	r4	2.796
5	2021.11.25	22:07:57	58	social/simulators.jpg	true	true	r5	2.313
5	2021.11.25	22:07:57	59	social/drummers.jpg	true	true	r5	1.432
5	2021.11.25	22:07:57	60	inanimate/international.jpg	true	true	r5	1.277
5	2021.11.25	22:07:57	61	inanimate/inhabited.jpg	true	true	r6	1.074
5	2021.11.25	22:07:57	62	inanimate/gentle.jpg	false	true	r3	1.547
5	2021.11.25	22:07:57	63	social/wiry.jpg	true	true	r1	1.429
5	2021.11.25	22:07:57	64	social/mastering.jpg	true	true	r5	2.435
5	2021.11.25	22:07:57	65	inanimate/resigned.jpg	false	true	r1	1.655
5	2021.11.25	22:07:57	66	social/discoloured.jpg	false	true	r6	1.292
5	2021.11.25	22:07:57	67	social/nicotine.jpg	true	true	r4	1.578
5	2021.11.25	22:07:57	68	inanimate/saloon.jpg	true	true	r5	1.252
5	2021.11.25	22:07:57	69	inanimate/vanilla.jpg	false	true	r3	1.85
5	2021.11.25	22:07:57	70	social/tides.jpg	false	true	r3	1.772
5	2021.11.25	22:07:57	71	inanimate/stagecoach.jpg	true	true	r3	2.445
5	2021.11.25	22:07:57	72	inanimate/ethnic.jpg	false	true	r2	1.554
5	2021.11.25	22:07:57	73	inanimate/enlightened.jpg	false	true	r5	2.101
5	2021.11.25	22:07:57	74	social/pillow.jpg	true	true	r5	1.75
5	2021.11.25	22:07:57	75	social/runaway.jpg	true	true	r4	1.747
5	2021.11.25	22:07:57	76	inanimate/tides.jpg	true	true	r5	1.849
5	2021.11.25	22:07:57	77	social/jews.jpg	false	true	r3	1.503
5	2021.11.25	22:07:57	78	social/gentle.jpg	false	true	r1	1.941
5	2021.11.25	22:07:57	79	social/mustered.jpg	true	true	r6	1.929
5	2021.11.25	22:07:57	80	social/lager.jpg	true	true	r6	1.562
5	2021.11.25	22:07:57	81	inanimate/droning.jpg	false	true	r3	2.824
5	2021.11.25	22:07:57	82	social/ethnic.jpg	true	true	r5	1.215
5	2021.11.25	22:07:57	83	inanimate/closely.jpg	true	true	r1	3.56
5	2021.11.25	22:07:57	84	social/inhabited.jpg	false	true	r5	2.549
5	2021.11.25	22:07:57	85	inanimate/discoloured.jpg	true	true	r1	1.562
5	2021.11.25	22:07:57	86	social/projecting.jpg	false	true	r1	1.25
5	2021.11.25	22:07:57	87	social/detecting.jpg	false	true	r5	1.589
5	2021.11.25	22:07:57	88	inanimate/water.jpg	false	true	r5	0.983
5	2021.11.25	22:07:57	89	inanimate/uneven.jpg	true	true	r2	1.609
5	2021.11.25	22:07:57	90	social/cake.jpg	false	true	r2	1.467
5	2021.11.25	22:07:57	91	inanimate/living.jpg	true	true	r3	1.416
5	2021.11.25	22:07:57	92	inanimate/retrial.jpg	false	true	r2	1.301
5	2021.11.25	22:07:57	93	social/solids.jpg	true	true	r5	1.563
5	2021.11.25	22:07:57	94	inanimate/chopping.jpg	true	true	r4	1.22
5	2021.11.25	22:07:57	95	inanimate/castor.jpg	false	true	r1	2.966
5	2021.11.25	22:07:57	96	inanimate/aprons.jpg	true	true	r4	1.881
5	2021.11.25	22:07:57	97	inanimate/fattening.jpg	false	true	r2	1.57
5	2021.11.25	22:07:57	98	inanimate/burials.jpg	true	true	r2	1.676
5	2021.11.25	22:07:57	99	social/vocals.jpg	false	true	r5	1.619
5	2021.11.25	22:07:57	100	social/clambering.jpg	true	true	r4	2.336
5	2021.11.25	22:07:57	101	social/restraint.jpg	true	true	r2	1.824
5	2021.11.25	22:07:57	102	social/altars.jpg	true	true	r3	1.586
5	2021.11.25	22:07:57	103	social/aprons.jpg	false	true	r4	1.57
5	2021.11.25	22:07:57	104	inanimate/deteriorating.jpg	false	true	r1	1.327
5	2021.11.25	22:07:57	105	inanimate/icelandic.jpg	true	true	r5	2.109
5	2021.11.25	22:07:57	106	social/cramming.jpg	true	true	r3	1.959
5	2021.11.25	22:07:57	107	inanimate/runaway.jpg	true	true	r3	1.305
5	2021.11.25	22:07:57	108	social/observational.jpg	true	true	r3	1.268
5	2021.11.25	22:07:57	109	social/wave.jpg	false	true	r6	1.375
5	2021.11.25	22:07:57	110	social/castor.jpg	false	true	r4	1.204
5	2021.11.25	22:07:57	111	inanimate/budding.jpg	false	true	r6	2.294
5	2021.11.25	22:07:57	112	inanimate/undercarriage.jpg	false	true	r1	1.423
5	2021.11.25	22:07:57	113	social/graduated.jpg	true	true	r6	4.92
5	2021.11.25	22:07:57	114	social/vanilla.jpg	true	true	r4	4.522
5	2021.11.25	22:07:57	115	inanimate/russet.jpg	true	true	r2	1.357
5	2021.11.25	22:07:57	116	inanimate/desert.jpg	true	true	r2	1.379
5	2021.11.25	22:07:57	117	inanimate/pillow.jpg	false	true	r2	1.102
5	2021.11.25	22:07:57	118	social/depressing.jpg	true	true	r2	3.608
5	2021.11.25	22:07:57	119	inanimate/contractor.jpg	false	true	r2	0.61
5	2021.11.25	22:07:57	120	social/chopping.jpg	true	true	r4	3.512
5	2021.11.25	22:07:57	121	social/water.jpg	false	true	r5	1.113
5	2021.11.25	22:07:57	122	social/departmental.jpg	false	true	r6	0.763
5	2021.11.25	22:07:57	123	inanimate/mastering.jpg	false	true	r4	1.204
5	2021.11.25	22:07:57	124	social/fragrant.jpg	true	true	r6	1.352
5	2021.11.25	22:07:57	125	social/retrial.jpg	true	true	r4	1.709
5	2021.11.25	22:07:57	126	social/smallholders.jpg	false	true	r5	3.135
5	2021.11.25	22:07:57	127	social/wear.jpg	false	true	r4	2.068
5	2021.11.25	22:07:57	128	social/buses.jpg	true	true	r3	1.749
5	2021.11.25	22:07:57	129	inanimate/restraint.jpg	true	true	r1	1.048
5	2021.11.25	22:07:57	130	social/veranda.jpg	false	true	r5	1.213
5	2021.11.25	22:07:57	131	social/aristocracy.jpg	false	true	r6	2.141
5	2021.11.25	22:07:57	132	inanimate/mustered.jpg	true	true	r6	0.808
5	2021.11.25	22:07:57	133	social/whistle.jpg	false	true	r6	1.907
5	2021.11.25	22:07:57	134	social/saloon.jpg	false	true	r5	2.084
5	2021.11.25	22:07:57	135	inanimate/irretrievably.jpg	true	true	r1	2.069
5	2021.11.25	22:07:57	136	inanimate/receptions.jpg	false	true	r5	2.051
5	2021.11.25	22:07:57	137	inanimate/cake.jpg	false	true	r5	2.084
5	2021.11.25	22:07:57	138	inanimate/lifts.jpg	true	true	r5	1.416
5	2021.11.25	22:07:57	139	social/deteriorating.jpg	false	true	r4	2.79
5	2021.11.25	22:07:57	140	inanimate/fountain.jpg	false	true	r4	0.987
5	2021.11.25	22:07:57	141	inanimate/suction.jpg	true	true	r1	1.521
5	2021.11.25	22:07:57	142	social/irretrievably.jpg	true	true	r1	2.157
5	2021.11.25	22:07:57	143	inanimate/clambering.jpg	true	true	r2	2.108
5	2021.11.25	22:07:57	144	inanimate/solids.jpg	false	true	r6	1.252
5	2021.11.25	22:07:57	145	inanimate/wave.jpg	true	true	r6	0.792
5	2021.11.25	22:07:57	146	inanimate/drummers.jpg	false	true	r2	1.507
5	2021.11.25	22:07:57	147	inanimate/altars.jpg	true	true	r5	1.661
5	2021.11.25	22:07:57	148	social/living.jpg	false	true	r3	1.929
5	2021.11.25	22:07:57	149	inanimate/aristocracy.jpg	false	true	r6	1.134
5	2021.11.25	22:07:57	150	inanimate/smallholders.jpg	false	true	r3	2.113
5	2021.11.25	22:07:57	151	social/allotments.jpg	true	true	r3	1.723
5	2021.11.25	22:07:57	152	inanimate/lager.jpg	false	true	r3	0.961
5	2021.11.25	22:07:57	153	social/stagecoach.jpg	false	true	r5	1.456
5	2021.11.25	22:07:57	154	social/car.jpg	true	true	r5	2.019
5	2021.11.25	22:07:57	155	inanimate/jews.jpg	true	true	r2	1.592
5	2021.11.25	22:07:57	156	social/receptions.jpg	false	true	r5	1.741
5	2021.11.25	22:07:57	157	inanimate/eroding.jpg	false	true	r5	1.178
5	2021.11.25	22:07:57	158	social/suction.jpg	false	true	r5	1.711
5	2021.11.25	22:07:57	159	social/resigned.jpg	true	true	r2	1.441
5	2021.11.25	22:07:57	160	social/enlightened.jpg	false	true	r1	1.193
5	2021.11.25	22:07:57	161	social/droning.jpg	false	true	r3	1.211
5	2021.11.25	22:07:57	162	inanimate/wanderer.jpg	false	true	r6	2.108
5	2021.11.25	22:07:57	163	inanimate/projecting.jpg	true	true	r2	2.273
5	2021.11.25	22:07:57	164	inanimate/simulators.jpg	false	true	r1	1.064
5	2021.11.25	22:07:57	165	social/manufacturing.jpg	false	true	r1	1.618
5	2021.11.25	22:07:57	166	social/diamonds.jpg	true	true	r1	1.119
5	2021.11.25	22:07:57	167	inanimate/observational.jpg	true	true	r1	1.443
5	2021.11.25	22:07:57	168	inanimate/trails.jpg	false	true	r2	0.988
5	2021.11.25	22:07:57	169	inanimate/graduated.jpg	false	true	r6	1.729
5	2021.11.25	22:07:57	170	inanimate/wiry.jpg	true	true	r3	3.242
5	2021.11.25	22:07:57	171	inanimate/buses.jpg	true	true	r4	2.597
5	2021.11.25	22:07:57	172	inanimate/allotments.jpg	true	true	r1	1.693
5	2021.11.25	22:07:57	173	inanimate/whistle.jpg	false	true	r2	0.926
5	2021.11.25	22:07:57	174	social/trails.jpg	false	true	r6	1.937
5	2021.11.25	22:07:57	175	inanimate/manufacturing.jpg	true	true	r2	1.302
5	2021.11.25	22:07:57	176	social/uneven.jpg	true	true	r2	1.071
5	2021.11.25	22:07:57	177	social/fountain.jpg	false	true	r3	1.354
5	2021.11.25	22:07:57	178	social/wharf.jpg	true	true	r5	1.745
5	2021.11.25	22:07:57	179	social/closely.jpg	false	true	r6	1.136
5	2021.11.25	22:07:57	180	social/contractor.jpg	true	true	r5	2.826
5	2021.11.25	22:07:57	181	social/russet.jpg	true	true	r3	1.172
5	2021.11.25	22:07:57	182	social/desert.jpg	false	true	r3	1.587
5	2021.11.25	22:07:57	183	inanimate/nicotine.jpg	false	true	r2	1.082
5	2021.11.25	22:07:57	184	inanimate/cramming.jpg	true	true	r2	1.154
5	2021.11.25	22:07:57	185	social/undercarriage.jpg	false	true	r2	1.803
5	2021.11.25	22:07:57	186	inanimate/detecting.jpg	false	true	r2	0.879
5	2021.11.25	22:07:57	187	social/knitters.jpg	true	true	r6	1.438
5	2021.11.25	22:07:57	188	inanimate/departmental.jpg	false	true	r6	0.945
5	2021.11.25	22:07:57	189	inanimate/wharf.jpg	true	true	r6	0.803
5	2021.11.25	22:07:57	190	inanimate/knitters.jpg	true	true	r2	1.644
5	2021.11.25	22:07:57	191	inanimate/depressing.jpg	false	true	r1	1.188
5	2021.11.25	22:07:57	192	social/international.jpg	false	true	r1	1.121
5	2021.11.25	22:07:57	193	inanimate/vocals.jpg	false	true	r1	1.84
5	2021.11.25	22:07:57	194	social/wanderer.jpg	true	true	r3	1.237
5	2021.11.25	22:07:57	195	inanimate/fragrant.jpg	true	true	r5	1.032
5	2021.11.25	22:07:57	196	inanimate/wear.jpg	true	true	r3	2.09
5	2021.11.25	22:07:57	197	social/glittering.jpg	true	true	r3	1.557
5	2021.11.25	22:07:57	198	social/lifts.jpg	false	true	r5	1.699
5	2021.11.25	22:07:57	199	social/infected.jpg	true	true	r5	1.074
5	2021.11.25	22:07:57	200	inanimate/veranda.jpg	false	true	r5	1.464
5	2021.11.25	22:07:57	201	inanimate/inmates.jpg	true	true	r2	1.391
5	2021.11.25	22:07:57	202	social/burials.jpg	true	true	r4	1.121
5	2021.11.25	22:07:57	203	social/fattening.jpg	true	true	r3	1.138
5	2021.11.25	22:07:57	204	inanimate/car.jpg	true	true	r2	1.684
5	2021.11.25	22:07:57	205	social/icelandic.jpg	true	true	r5	1.505
5	2021.11.25	22:07:57	206	inanimate/diamonds.jpg	false	true	r3	1.146
5	2021.11.25	22:07:57	207	social/budding.jpg	true	true	r5	1.228
5	2021.11.25	22:07:57	208	inanimate/infected.jpg	true	true	r2	1.138
5	2021.11.25	22:07:57	209	social/inmates.jpg	false	true	r1	0.992
5	2021.11.25	22:07:57	210	social/straw.jpg	true	true	r2	1.284
5	2021.11.25	22:07:57	211	inanimate/straw.jpg	false	true	r3	0.894
5	2021.11.25	22:07:57	212	inanimate/glittering.jpg	true	true	r1	0.793
5	2021.11.25	22:07:57	213	social/eroding.jpg	false	true	r3	1.516
5	2021.11.25	22:07:57	214	social/simulators.jpg	false	true	r5	1.506
5	2021.11.25	22:07:57	215	social/drummers.jpg	false	true	r5	1.138
5	2021.11.25	22:07:57	216	inanimate/international.jpg	false	true	r5	0.918
5	2021.11.25	22:07:57	217	inanimate/inhabited.jpg	false	true	r6	1.357
5	2021.11.25	22:07:57	218	inanimate/gentle.jpg	true	true	r3	1.392
5	2021.11.25	22:07:57	219	social/wiry.jpg	false	true	r2	1.872
5	2021.11.25	22:07:57	220	social/mastering.jpg	false	true	r5	1.425
5	2021.11.25	22:07:57	221	inanimate/resigned.jpg	true	true	r2	1.6
5	2021.11.25	22:07:57	222	social/discoloured.jpg	true	true	r6	1.263
5	2021.11.25	22:07:57	223	social/nicotine.jpg	false	true	r4	1.64
5	2021.11.25	22:07:57	224	inanimate/saloon.jpg	false	true	r5	1.394
5	2021.11.25	22:07:57	225	inanimate/vanilla.jpg	true	true	r3	1.131
5	2021.11.25	22:07:57	226	social/tides.jpg	true	true	r3	3.039
5	2021.11.25	22:07:57	227	inanimate/stagecoach.jpg	false	true	r3	1.554
5	2021.11.25	22:07:57	228	inanimate/ethnic.jpg	true	true	r3	1.431
5	2021.11.25	22:07:57	229	inanimate/enlightened.jpg	true	true	r5	1.032
5	2021.11.25	22:07:57	230	social/pillow.jpg	false	true	r4	1.088
5	2021.11.25	22:07:57	231	social/runaway.jpg	false	true	r4	1.229
5	2021.11.25	22:07:57	232	inanimate/tides.jpg	false	true	r5	1.644
5	2021.11.25	22:07:57	233	social/jews.jpg	true	true	r3	1.74
5	2021.11.25	22:07:57	234	social/gentle.jpg	true	true	r2	1.087
5	2021.11.25	22:07:57	235	social/mustered.jpg	false	true	r1	1.124
5	2021.11.25	22:07:57	236	social/lager.jpg	false	true	r6	2.043
5	2021.11.25	22:07:57	237	inanimate/droning.jpg	true	true	r4	1.701
5	2021.11.25	22:07:57	238	social/ethnic.jpg	false	true	r4	1.308
5	2021.11.25	22:07:57	239	inanimate/closely.jpg	false	true	r2	1.798
5	2021.11.25	22:07:57	240	social/inhabited.jpg	true	true	r6	1.212
5	2021.11.25	22:07:57	241	inanimate/discoloured.jpg	false	true	r4	1.872
5	2021.11.25	22:07:57	242	social/projecting.jpg	true	true	r4	1.228
5	2021.11.25	22:07:57	243	social/detecting.jpg	true	true	r6	2.099
5	2021.11.25	22:07:57	244	inanimate/water.jpg	true	true	r5	1.133
5	2021.11.25	22:07:57	245	inanimate/uneven.jpg	false	true	r4	0.979
5	2021.11.25	22:07:57	246	social/cake.jpg	true	true	r3	1.177
5	2021.11.25	22:07:57	247	inanimate/living.jpg	false	true	r4	1.053
5	2021.11.25	22:07:57	248	inanimate/retrial.jpg	true	true	r2	1.039
5	2021.11.25	22:07:57	249	social/solids.jpg	false	true	r5	1.317
5	2021.11.25	22:07:57	250	inanimate/chopping.jpg	false	true	r3	1.462
5	2021.11.25	22:07:57	251	inanimate/castor.jpg	true	true	r2	2.617
5	2021.11.25	22:07:57	252	inanimate/aprons.jpg	false	true	r5	1.145
5	2021.11.25	22:07:57	253	inanimate/fattening.jpg	true	true	r2	1.359
