num	date	subjStartTime	trialNum	stimName	flipLeft	inView	response	rt
1	2021.11.25	21:22:31	1	social/saloon.jpg	true	true	right	28.486
1	2021.11.25	21:22:31	2	social/water.jpg	false	true	right	9.117
1	2021.11.25	21:22:31	3	social/inmates.jpg	false	true	right	6.093
1	2021.11.25	21:22:31	4	social/projecting.jpg	false	true	left	6.787
1	2021.11.25	21:22:31	5	inanimate/vocals.jpg	true	true	left	6.457
1	2021.11.25	21:22:31	6	social/droning.jpg	false	true	right	9.686
1	2021.11.25	21:22:31	7	social/runaway.jpg	false	true	left	2.425
1	2021.11.25	21:22:31	8	social/aprons.jpg	false	true	left	11.304
1	2021.11.25	21:22:31	9	social/retrial.jpg	false	true	left	4.595
1	2021.11.25	21:22:31	10	inanimate/projecting.jpg	false	true	left	4.151
1	2021.11.25	21:22:31	11	inanimate/icelandic.jpg	true	true	left	4.309
1	2021.11.25	21:22:31	12	social/fragrant.jpg	true	true	left	10.209
1	2021.11.25	21:22:31	13	inanimate/detecting.jpg	false	true	right	4.908
1	2021.11.25	21:22:31	14	inanimate/simulators.jpg	true	true	right	8.873
1	2021.11.25	21:22:31	15	social/pillow.jpg	true	true	left	4.108
1	2021.11.25	21:22:31	16	social/lifts.jpg	false	true	left	9.459
1	2021.11.25	21:22:31	17	inanimate/wave.jpg	true	true	left	2.636
1	2021.11.25	21:22:31	18	inanimate/saloon.jpg	true	true	left	4.981
1	2021.11.25	21:22:31	19	social/mustered.jpg	true	true	left	3.675
1	2021.11.25	21:22:31	20	inanimate/receptions.jpg	true	true	left	12.121
1	2021.11.25	21:22:31	21	inanimate/car.jpg	true	true	right	3.632
1	2021.11.25	21:22:31	22	social/international.jpg	true	true	right	3.939
1	2021.11.25	21:22:31	23	inanimate/castor.jpg	true	true	right	2.291
1	2021.11.25	21:22:31	24	social/vanilla.jpg	false	true	left	9.249
1	2021.11.25	21:22:31	25	social/lager.jpg	false	true	left	5.087
1	2021.11.25	21:22:31	26	inanimate/diamonds.jpg	false	true	left	1.841
1	2021.11.25	21:22:31	27	inanimate/wear.jpg	false	true	left	4.203
1	2021.11.25	21:22:31	28	social/irretrievably.jpg	true	true	right	5.566
1	2021.11.25	21:22:31	29	social/diamonds.jpg	false	true	left	8.354
1	2021.11.25	21:22:31	30	inanimate/desert.jpg	true	true	right	2.702
1	2021.11.25	21:22:31	31	inanimate/runaway.jpg	false	true	right	3.069
1	2021.11.25	21:22:31	32	inanimate/discoloured.jpg	true	true	left	2.556
1	2021.11.25	21:22:31	33	inanimate/allotments.jpg	false	true	right	1.893
1	2021.11.25	21:22:31	34	inanimate/mastering.jpg	false	true	left	4.106
1	2021.11.25	21:22:31	35	inanimate/clambering.jpg	true	true	right	1.76
1	2021.11.25	21:22:31	36	social/depressing.jpg	false	true	right	2.832
1	2021.11.25	21:22:31	37	inanimate/fountain.jpg	true	true	left	1.881
1	2021.11.25	21:22:31	38	inanimate/stagecoach.jpg	true	true	right	13.097
1	2021.11.25	21:22:31	39	inanimate/closely.jpg	false	true	right	11.408
1	2021.11.25	21:22:31	40	social/budding.jpg	false	true	left	5.291
1	2021.11.25	21:22:31	41	inanimate/depressing.jpg	false	true	left	5.195
1	2021.11.25	21:22:31	42	inanimate/buses.jpg	true	true	left	2.918
1	2021.11.25	21:22:31	43	social/detecting.jpg	false	true	right	3.264
1	2021.11.25	21:22:31	44	inanimate/altars.jpg	false	true	right	1.147
1	2021.11.25	21:22:31	45	social/veranda.jpg	false	true	left	5.083
1	2021.11.25	21:22:31	46	social/wanderer.jpg	false	true	left	6.666
1	2021.11.25	21:22:31	47	inanimate/nicotine.jpg	true	true	left	3.669
1	2021.11.25	21:22:31	48	social/inhabited.jpg	true	true	left	3.539
1	2021.11.25	21:22:31	49	social/wear.jpg	false	true	left	4.886
1	2021.11.25	21:22:31	50	inanimate/infected.jpg	true	true	left	1.381
1	2021.11.25	21:22:31	51	inanimate/living.jpg	true	true	right	1.333
1	2021.11.25	21:22:31	52	inanimate/solids.jpg	true	true	right	1.038
1	2021.11.25	21:22:31	53	inanimate/manufacturing.jpg	true	true	right	1.631
1	2021.11.25	21:22:31	54	inanimate/undercarriage.jpg	false	true	left	2.621
1	2021.11.25	21:22:31	55	inanimate/aprons.jpg	false	true	left	1.896
1	2021.11.25	21:22:31	56	social/fountain.jpg	true	true	right	2.677
1	2021.11.25	21:22:31	57	inanimate/inmates.jpg	false	true	right	2.267
1	2021.11.25	21:22:31	58	inanimate/irretrievably.jpg	true	true	right	1.254
1	2021.11.25	21:22:31	59	social/resigned.jpg	false	true	left	6.863
1	2021.11.25	21:22:31	60	inanimate/inhabited.jpg	true	true	left	3.043
1	2021.11.25	21:22:31	61	inanimate/enlightened.jpg	true	true	right	2.731
1	2021.11.25	21:22:31	62	social/car.jpg	true	true	left	5.514
1	2021.11.25	21:22:31	63	inanimate/trails.jpg	false	true	left	1.86
1	2021.11.25	21:22:31	64	social/contractor.jpg	false	true	right	3.608
1	2021.11.25	21:22:31	65	inanimate/international.jpg	true	true	right	1.433
1	2021.11.25	21:22:31	66	social/wave.jpg	true	true	right	2.348
1	2021.11.25	21:22:31	67	inanimate/graduated.jpg	false	true	right	1.22
1	2021.11.25	21:22:31	68	social/departmental.jpg	true	true	left	4.167
1	2021.11.25	21:22:31	69	social/cake.jpg	false	true	left	2.361
1	2021.11.25	21:22:31	70	inanimate/wanderer.jpg	false	true	left	1.631
1	2021.11.25	21:22:31	71	social/suction.jpg	false	true	left	1.993
1	2021.11.25	21:22:31	72	social/tides.jpg	true	true	right	1.593
1	2021.11.25	21:22:31	73	social/mastering.jpg	false	true	left	11.78
1	2021.11.25	21:22:31	74	social/clambering.jpg	true	true	left	5.644
1	2021.11.25	21:22:31	75	inanimate/veranda.jpg	false	true	left	1.457
1	2021.11.25	21:22:31	76	social/glittering.jpg	true	true	left	4.524
1	2021.11.25	21:22:31	77	inanimate/departmental.jpg	true	true	right	1.494
1	2021.11.25	21:22:31	78	social/fattening.jpg	false	true	left	7.058
1	2021.11.25	21:22:31	79	social/discoloured.jpg	true	true	right	2.436
1	2021.11.25	21:22:31	80	inanimate/vanilla.jpg	false	true	right	12.15
1	2021.11.25	21:22:31	81	social/chopping.jpg	true	true	right	2.759
1	2021.11.25	21:22:31	82	social/uneven.jpg	true	true	right	3.946
1	2021.11.25	21:22:31	83	inanimate/glittering.jpg	true	true	right	1.279
1	2021.11.25	21:22:31	84	social/trails.jpg	false	true	left	5.797
1	2021.11.25	21:22:31	85	inanimate/pillow.jpg	true	true	left	0.953
1	2021.11.25	21:22:31	86	social/altars.jpg	false	true	left	3.062
1	2021.11.25	21:22:31	87	inanimate/suction.jpg	false	true	left	1.082
1	2021.11.25	21:22:31	88	inanimate/aristocracy.jpg	false	true	right	3.412
1	2021.11.25	21:22:31	89	social/deteriorating.jpg	true	true	left	6.008
1	2021.11.25	21:22:31	90	social/living.jpg	true	true	right	4.713
1	2021.11.25	21:22:31	91	inanimate/deteriorating.jpg	true	true	right	1.407
1	2021.11.25	21:22:31	92	inanimate/smallholders.jpg	true	true	right	0.816
1	2021.11.25	21:22:31	93	social/gentle.jpg	false	true	right	3.043
1	2021.11.25	21:22:31	94	social/ethnic.jpg	true	true	left	4.706
1	2021.11.25	21:22:31	95	social/nicotine.jpg	true	true	left	1.993
1	2021.11.25	21:22:31	96	social/russet.jpg	false	true	right	2.791
1	2021.11.25	21:22:31	97	inanimate/droning.jpg	false	true	left	60.622
1	2021.11.25	21:22:31	98	inanimate/russet.jpg	false	true	left	0.925
1	2021.11.25	21:22:31	99	social/jews.jpg	false	true	left	9.619
1	2021.11.25	21:22:31	100	inanimate/drummers.jpg	true	true	right	3
1	2021.11.25	21:22:31	101	social/aristocracy.jpg	false	true	left	4.38
1	2021.11.25	21:22:31	102	social/restraint.jpg	false	true	left	3.961
1	2021.11.25	21:22:31	103	inanimate/retrial.jpg	false	true	right	4.66
1	2021.11.25	21:22:31	104	inanimate/fragrant.jpg	true	true	right	0.824
1	2021.11.25	21:22:31	105	inanimate/knitters.jpg	true	true	right	1.551
1	2021.11.25	21:22:31	106	inanimate/chopping.jpg	true	true	right	2.041
1	2021.11.25	21:22:31	107	social/undercarriage.jpg	false	true	right	2.771
1	2021.11.25	21:22:31	108	inanimate/cramming.jpg	true	true	left	2.888
1	2021.11.25	21:22:31	109	inanimate/uneven.jpg	true	true	left	0.93
1	2021.11.25	21:22:31	110	inanimate/burials.jpg	false	true	left	0.736
1	2021.11.25	21:22:31	111	inanimate/cake.jpg	false	true	left	0.797
1	2021.11.25	21:22:31	112	social/allotments.jpg	false	true	left	1.794
1	2021.11.25	21:22:31	113	inanimate/whistle.jpg	false	true	left	2.358
1	2021.11.25	21:22:31	114	social/castor.jpg	true	true	right	4.025
1	2021.11.25	21:22:31	115	inanimate/budding.jpg	false	true	right	1.874
1	2021.11.25	21:22:31	116	inanimate/tides.jpg	true	true	left	4.754
1	2021.11.25	21:22:31	117	inanimate/water.jpg	false	true	left	2.702
1	2021.11.25	21:22:31	118	social/cramming.jpg	true	true	right	9.913
1	2021.11.25	21:22:31	119	inanimate/resigned.jpg	false	true	left	2.557
1	2021.11.25	21:22:31	120	social/knitters.jpg	true	true	left	2.887
1	2021.11.25	21:22:31	121	inanimate/contractor.jpg	false	true	left	1.843
1	2021.11.25	21:22:31	122	social/wiry.jpg	true	true	right	3.363
1	2021.11.25	21:22:31	123	inanimate/restraint.jpg	false	true	right	1.496
1	2021.11.25	21:22:31	124	inanimate/mustered.jpg	true	true	right	4.082
1	2021.11.25	21:22:31	125	social/burials.jpg	false	true	right	8.615
1	2021.11.25	21:22:31	126	social/enlightened.jpg	true	true	right	3.858
1	2021.11.25	21:22:31	127	social/buses.jpg	true	true	right	10.85
1	2021.11.25	21:22:31	128	social/vocals.jpg	true	true	right	3.066
1	2021.11.25	21:22:31	129	social/whistle.jpg	false	true	left	1.929
1	2021.11.25	21:22:31	130	social/straw.jpg	false	true	left	5.735
1	2021.11.25	21:22:31	131	inanimate/wharf.jpg	false	true	left	1.184
1	2021.11.25	21:22:31	132	social/wharf.jpg	false	true	left	3.097
1	2021.11.25	21:22:31	133	social/closely.jpg	false	true	right	3.953
1	2021.11.25	21:22:31	134	inanimate/lifts.jpg	false	true	right	0.889
1	2021.11.25	21:22:31	135	inanimate/ethnic.jpg	true	true	right	1.623
1	2021.11.25	21:22:31	136	social/infected.jpg	true	true	left	3.021
1	2021.11.25	21:22:31	137	inanimate/straw.jpg	false	true	left	1.479
1	2021.11.25	21:22:31	138	inanimate/observational.jpg	false	true	left	4.429
1	2021.11.25	21:22:31	139	inanimate/jews.jpg	false	true	right	1.615
1	2021.11.25	21:22:31	140	social/drummers.jpg	true	true	right	3.32
1	2021.11.25	21:22:31	141	social/desert.jpg	true	true	left	5.632
1	2021.11.25	21:22:31	142	social/graduated.jpg	false	true	left	2.813
1	2021.11.25	21:22:31	143	inanimate/lager.jpg	false	true	right	1.832
1	2021.11.25	21:22:31	144	social/manufacturing.jpg	true	true	right	1.679
1	2021.11.25	21:22:31	145	inanimate/gentle.jpg	false	true	left	1.48
1	2021.11.25	21:22:31	146	inanimate/fattening.jpg	false	true	left	1.267
1	2021.11.25	21:22:31	147	inanimate/eroding.jpg	true	true	left	1.05
1	2021.11.25	21:22:31	148	social/observational.jpg	false	true	right	3.856
1	2021.11.25	21:22:31	149	social/eroding.jpg	true	true	left	2.455
1	2021.11.25	21:22:31	150	social/smallholders.jpg	true	true	left	5.846
1	2021.11.25	21:22:31	151	inanimate/wiry.jpg	true	true	right	1.405
1	2021.11.25	21:22:31	152	social/receptions.jpg	true	true	right	10.32
1	2021.11.25	21:22:31	153	social/stagecoach.jpg	true	true	left	3.007
1	2021.11.25	21:22:31	154	social/icelandic.jpg	true	true	right	2.058
1	2021.11.25	21:22:31	155	social/simulators.jpg	true	true	right	5.486
1	2021.11.25	21:22:31	156	social/solids.jpg	true	true	right	2.755
num	date	subjStartTime	trialNum	stimName	flipLeft	inView	response	rt
2	2021.11.25	21:31:49	1	inanimate/nicotine.jpg	false	true	left	4.152
2	2021.11.25	21:31:49	2	inanimate/icelandic.jpg	false	true	left	2.502
2	2021.11.25	21:31:49	3	inanimate/receptions.jpg	true	true	right	5.467
2	2021.11.25	21:31:49	4	inanimate/retrial.jpg	true	true	left	4.558
2	2021.11.25	21:31:49	5	inanimate/uneven.jpg	false	true	right	5.91
2	2021.11.25	21:31:49	6	inanimate/veranda.jpg	true	true	left	5.326
2	2021.11.25	21:31:49	7	inanimate/departmental.jpg	false	true	right	4.268
2	2021.11.25	21:31:49	8	inanimate/chopping.jpg	false	true	right	4.135
2	2021.11.25	21:31:49	9	social/mastering.jpg	false	true	right	3.561
2	2021.11.25	21:31:49	10	inanimate/enlightened.jpg	false	true	left	9.351
2	2021.11.25	21:31:49	11	social/glittering.jpg	true	true	right	5.45
2	2021.11.25	21:31:49	12	social/saloon.jpg	false	true	left	4.947
2	2021.11.25	21:31:49	13	inanimate/graduated.jpg	true	true	left	6.66
2	2021.11.25	21:31:49	14	inanimate/altars.jpg	true	true	left	2.763
2	2021.11.25	21:31:49	15	social/uneven.jpg	false	true	right	2.537
2	2021.11.25	21:31:49	16	social/whistle.jpg	true	true	left	2.517
2	2021.11.25	21:31:49	17	inanimate/aprons.jpg	true	true	right	4.011
2	2021.11.25	21:31:49	18	inanimate/tides.jpg	true	true	left	2.004
2	2021.11.25	21:31:49	19	social/international.jpg	false	true	right	6.609
2	2021.11.25	21:31:49	20	social/observational.jpg	true	true	left	5.97
2	2021.11.25	21:31:49	21	inanimate/wharf.jpg	false	true	right	5.686
2	2021.11.25	21:31:49	22	social/wanderer.jpg	false	true	left	2.925
2	2021.11.25	21:31:49	23	inanimate/mastering.jpg	false	true	right	5.422
2	2021.11.25	21:31:49	24	inanimate/closely.jpg	false	true	left	5.799
2	2021.11.25	21:31:49	25	inanimate/water.jpg	false	true	right	5.49
2	2021.11.25	21:31:49	26	social/suction.jpg	false	true	left	4.429
2	2021.11.25	21:31:49	27	social/trails.jpg	true	true	right	4.639
2	2021.11.25	21:31:49	28	inanimate/saloon.jpg	false	true	right	4.737
2	2021.11.25	21:31:49	29	social/simulators.jpg	false	true	left	8.157
2	2021.11.25	21:31:49	30	inanimate/lager.jpg	true	true	left	1.843
2	2021.11.25	21:31:49	31	inanimate/mustered.jpg	true	true	left	2.887
2	2021.11.25	21:31:49	32	inanimate/allotments.jpg	true	true	left	7.509
2	2021.11.25	21:31:49	33	inanimate/lifts.jpg	false	true	left	3.475
2	2021.11.25	21:31:49	34	social/allotments.jpg	true	true	right	4.619
2	2021.11.25	21:31:49	35	inanimate/jews.jpg	false	true	right	6.943
2	2021.11.25	21:31:49	36	social/lifts.jpg	false	true	left	4.001
2	2021.11.25	21:31:49	37	inanimate/manufacturing.jpg	false	true	right	5.451
2	2021.11.25	21:31:49	38	social/irretrievably.jpg	true	true	left	13.214
2	2021.11.25	21:31:49	39	social/vanilla.jpg	true	true	right	6.818
2	2021.11.25	21:31:49	40	inanimate/deteriorating.jpg	true	true	left	17.337
2	2021.11.25	21:31:49	41	social/deteriorating.jpg	true	true	right	3.46
2	2021.11.25	21:31:49	42	inanimate/buses.jpg	false	true	right	10.842
2	2021.11.25	21:31:49	43	social/gentle.jpg	true	true	right	3.279
2	2021.11.25	21:31:49	44	social/straw.jpg	true	true	left	2.09
2	2021.11.25	21:31:49	45	inanimate/aristocracy.jpg	false	true	left	3.691
2	2021.11.25	21:31:49	46	social/icelandic.jpg	false	true	right	5.701
2	2021.11.25	21:31:49	47	inanimate/simulators.jpg	false	true	left	5.55
2	2021.11.25	21:31:49	48	inanimate/fountain.jpg	false	true	left	4.364
2	2021.11.25	21:31:49	49	social/pillow.jpg	false	true	left	4.198
2	2021.11.25	21:31:49	50	inanimate/contractor.jpg	true	true	left	1.888
2	2021.11.25	21:31:49	51	inanimate/car.jpg	true	true	left	4.584
2	2021.11.25	21:31:49	52	social/projecting.jpg	false	true	right	4.945
2	2021.11.25	21:31:49	53	social/ethnic.jpg	false	true	right	5.21
2	2021.11.25	21:31:49	54	inanimate/whistle.jpg	true	true	right	4.161
2	2021.11.25	21:31:49	55	inanimate/living.jpg	true	true	right	5.562
2	2021.11.25	21:31:49	56	social/inmates.jpg	false	true	left	10.109
2	2021.11.25	21:31:49	57	inanimate/discoloured.jpg	true	true	left	6.013
2	2021.11.25	21:31:49	58	inanimate/fattening.jpg	true	true	right	7.572
2	2021.11.25	21:31:49	59	inanimate/budding.jpg	false	true	left	2.289
2	2021.11.25	21:31:49	60	inanimate/burials.jpg	false	true	left	11.521
2	2021.11.25	21:31:49	61	inanimate/irretrievably.jpg	true	true	left	5.723
2	2021.11.25	21:31:49	62	social/depressing.jpg	true	true	left	9.352
2	2021.11.25	21:31:49	63	social/resigned.jpg	false	true	right	10.832
2	2021.11.25	21:31:49	64	inanimate/russet.jpg	true	true	right	8.443
2	2021.11.25	21:31:49	65	social/burials.jpg	false	true	left	10.768
2	2021.11.25	21:31:49	66	social/aristocracy.jpg	false	true	right	12.347
2	2021.11.25	21:31:49	67	inanimate/trails.jpg	true	true	right	7.757
2	2021.11.25	21:31:49	68	social/solids.jpg	false	true	left	7.856
2	2021.11.25	21:31:49	69	social/tides.jpg	true	true	left	8.237
2	2021.11.25	21:31:49	70	social/wear.jpg	false	true	left	4.106
2	2021.11.25	21:31:49	71	social/discoloured.jpg	true	true	left	5.017
2	2021.11.25	21:31:49	72	inanimate/suction.jpg	false	true	left	10.588
2	2021.11.25	21:31:49	73	social/enlightened.jpg	false	true	left	9.604
2	2021.11.25	21:31:49	74	inanimate/resigned.jpg	false	true	right	7.521
2	2021.11.25	21:31:49	75	inanimate/solids.jpg	false	true	right	11.362
2	2021.11.25	21:31:49	76	inanimate/eroding.jpg	false	true	right	6.708
2	2021.11.25	21:31:49	77	social/fountain.jpg	false	true	left	3.583
2	2021.11.25	21:31:49	78	social/graduated.jpg	true	true	right	3.853
2	2021.11.25	21:31:49	79	social/castor.jpg	true	true	right	6.881
2	2021.11.25	21:31:49	80	inanimate/runaway.jpg	true	true	right	2.081
2	2021.11.25	21:31:49	81	social/lager.jpg	true	true	left	2.69
2	2021.11.25	21:31:49	82	social/wharf.jpg	false	true	left	2.971
2	2021.11.25	21:31:49	83	inanimate/depressing.jpg	true	true	right	4.206
2	2021.11.25	21:31:49	84	social/living.jpg	true	true	left	3.953
2	2021.11.25	21:31:49	85	social/fragrant.jpg	false	true	right	2.102
2	2021.11.25	21:31:49	86	social/drummers.jpg	true	true	left	3.072
2	2021.11.25	21:31:49	87	inanimate/smallholders.jpg	true	true	right	5.341
2	2021.11.25	21:31:49	88	inanimate/inmates.jpg	false	true	left	4.369
2	2021.11.25	21:31:49	89	inanimate/knitters.jpg	false	true	right	7.016
2	2021.11.25	21:31:49	90	inanimate/clambering.jpg	true	true	right	2.364
2	2021.11.25	21:31:49	91	inanimate/vocals.jpg	true	true	right	4.488
2	2021.11.25	21:31:49	92	inanimate/stagecoach.jpg	true	true	right	7.221
2	2021.11.25	21:31:49	93	inanimate/desert.jpg	false	true	left	7.967
2	2021.11.25	21:31:49	94	social/inhabited.jpg	false	true	left	2.987
2	2021.11.25	21:31:49	95	social/jews.jpg	false	true	right	4.722
2	2021.11.25	21:31:49	96	inanimate/wiry.jpg	true	true	left	11.649
2	2021.11.25	21:31:49	97	social/contractor.jpg	true	true	left	3.749
2	2021.11.25	21:31:49	98	social/detecting.jpg	false	true	right	3.012
2	2021.11.25	21:31:49	99	inanimate/castor.jpg	true	true	right	8.301
2	2021.11.25	21:31:49	100	social/buses.jpg	false	true	left	4.649
2	2021.11.25	21:31:49	101	social/aprons.jpg	true	true	right	3.242
2	2021.11.25	21:31:49	102	inanimate/international.jpg	false	true	left	18.309
2	2021.11.25	21:31:49	103	inanimate/gentle.jpg	true	true	left	3.488
2	2021.11.25	21:31:49	104	inanimate/infected.jpg	true	true	left	2.44
2	2021.11.25	21:31:49	105	social/smallholders.jpg	true	true	right	6.845
2	2021.11.25	21:31:49	106	inanimate/projecting.jpg	false	true	left	3.331
2	2021.11.25	21:31:49	107	social/car.jpg	true	true	right	3.72
2	2021.11.25	21:31:49	108	social/receptions.jpg	true	true	left	4.659
2	2021.11.25	21:31:49	109	inanimate/undercarriage.jpg	true	true	left	4.466
2	2021.11.25	21:31:49	110	social/runaway.jpg	true	true	left	3.123
2	2021.11.25	21:31:49	111	social/veranda.jpg	true	true	right	4.033
2	2021.11.25	21:31:49	112	inanimate/cake.jpg	true	true	left	9.389
2	2021.11.25	21:31:49	113	social/clambering.jpg	true	true	right	2.411
2	2021.11.25	21:31:49	114	social/wiry.jpg	true	true	right	4.898
2	2021.11.25	21:31:49	115	inanimate/droning.jpg	true	true	right	4.691
2	2021.11.25	21:31:49	116	inanimate/straw.jpg	true	true	right	2.074
2	2021.11.25	21:31:49	117	social/wave.jpg	true	true	left	4.039
2	2021.11.25	21:31:49	118	inanimate/detecting.jpg	false	true	right	3.53
2	2021.11.25	21:31:49	119	social/fattening.jpg	true	true	left	2.357
2	2021.11.25	21:31:49	120	social/desert.jpg	false	true	right	2.653
2	2021.11.25	21:31:49	121	social/cramming.jpg	false	true	right	3.14
2	2021.11.25	21:31:49	122	social/altars.jpg	true	true	left	3.129
2	2021.11.25	21:31:49	123	inanimate/observational.jpg	true	true	right	1.961
2	2021.11.25	21:31:49	124	inanimate/wear.jpg	false	true	right	6.355
2	2021.11.25	21:31:49	125	inanimate/restraint.jpg	false	true	left	4.579
2	2021.11.25	21:31:49	126	inanimate/diamonds.jpg	false	true	right	3.305
2	2021.11.25	21:31:49	127	inanimate/inhabited.jpg	false	true	left	4.205
2	2021.11.25	21:31:49	128	social/mustered.jpg	true	true	left	4.126
2	2021.11.25	21:31:49	129	social/cake.jpg	true	true	right	2.98
2	2021.11.25	21:31:49	130	inanimate/fragrant.jpg	false	true	left	3.109
2	2021.11.25	21:31:49	131	social/droning.jpg	true	true	left	8.024
2	2021.11.25	21:31:49	132	social/infected.jpg	true	true	left	2.644
2	2021.11.25	21:31:49	133	social/nicotine.jpg	false	true	right	5.381
2	2021.11.25	21:31:49	134	social/knitters.jpg	false	true	right	2.336
2	2021.11.25	21:31:49	135	social/budding.jpg	false	true	right	2.399
2	2021.11.25	21:31:49	136	social/stagecoach.jpg	true	true	right	5.898
2	2021.11.25	21:31:49	137	social/chopping.jpg	false	true	right	2.776
2	2021.11.25	21:31:49	138	social/russet.jpg	true	true	left	3.434
2	2021.11.25	21:31:49	139	inanimate/cramming.jpg	false	true	right	4.549
2	2021.11.25	21:31:49	140	inanimate/wanderer.jpg	false	true	left	5.639
2	2021.11.25	21:31:49	141	inanimate/glittering.jpg	true	true	left	4.642
2	2021.11.25	21:31:49	142	inanimate/wave.jpg	true	true	right	3.226
2	2021.11.25	21:31:49	143	social/departmental.jpg	false	true	right	6.597
2	2021.11.25	21:31:49	144	social/undercarriage.jpg	true	true	right	5.548
2	2021.11.25	21:31:49	145	social/closely.jpg	false	true	left	4.312
2	2021.11.25	21:31:49	146	social/manufacturing.jpg	false	true	right	9.058
2	2021.11.25	21:31:49	147	social/water.jpg	false	true	left	6.497
2	2021.11.25	21:31:49	148	social/vocals.jpg	true	true	right	2.728
2	2021.11.25	21:31:49	149	inanimate/ethnic.jpg	false	true	right	7.266
2	2021.11.25	21:31:49	150	inanimate/drummers.jpg	true	true	right	4.143
2	2021.11.25	21:31:49	151	social/restraint.jpg	false	true	right	12.625
2	2021.11.25	21:31:49	152	social/diamonds.jpg	false	true	left	12.75
2	2021.11.25	21:31:49	153	inanimate/vanilla.jpg	true	true	left	3.012
2	2021.11.25	21:31:49	154	social/eroding.jpg	false	true	right	6.27
2	2021.11.25	21:31:49	155	social/retrial.jpg	true	true	right	2.886
2	2021.11.25	21:31:49	156	inanimate/pillow.jpg	false	true	right	4.89
num	date	subjStartTime	trialNum	stimName	flipLeft	inView	response	rt
4	2021.11.25	21:46:08	1	inanimate/manufacturing.jpg	true	true	left	0.77
4	2021.11.25	21:46:08	2	social/veranda.jpg	false	true	right	0.747
4	2021.11.25	21:46:08	3	social/graduated.jpg	true	true	left	0.804
4	2021.11.25	21:46:08	4	inanimate/castor.jpg	false	true	right	0.34
4	2021.11.25	21:46:08	5	inanimate/discoloured.jpg	false	true	left	0.059
4	2021.11.25	21:46:08	6	social/desert.jpg	true	true	right	0.121
4	2021.11.25	21:46:08	7	inanimate/undercarriage.jpg	false	true	right	0.462
4	2021.11.25	21:46:08	8	inanimate/jews.jpg	true	true	right	0.252
4	2021.11.25	21:46:08	9	social/irretrievably.jpg	true	true	right	0.136
4	2021.11.25	21:46:08	10	social/enlightened.jpg	true	true	right	0.284
4	2021.11.25	21:46:08	11	inanimate/smallholders.jpg	false	true	right	0.349
4	2021.11.25	21:46:08	12	inanimate/tides.jpg	true	true	right	0.235
4	2021.11.25	21:46:08	13	social/wear.jpg	false	true	right	1.911
4	2021.11.25	21:46:08	14	inanimate/diamonds.jpg	false	true	left	2.163
4	2021.11.25	21:46:08	15	social/buses.jpg	true	true	right	1.367
4	2021.11.25	21:46:08	16	social/solids.jpg	false	true	right	1.377
4	2021.11.25	21:46:08	17	social/detecting.jpg	true	true	right	2.239
4	2021.11.25	21:46:08	18	social/contractor.jpg	false	true	right	1.118
4	2021.11.25	21:46:08	19	inanimate/simulators.jpg	false	true	left	1.546
4	2021.11.25	21:46:08	20	social/diamonds.jpg	false	true	left	0.319
4	2021.11.25	21:46:08	21	social/eroding.jpg	true	true	left	0.272
4	2021.11.25	21:46:08	22	inanimate/trails.jpg	true	true	right	0.143
4	2021.11.25	21:46:08	23	social/aprons.jpg	false	true	left	0.01
4	2021.11.25	21:46:08	24	inanimate/fragrant.jpg	true	true	right	0.023
4	2021.11.25	21:46:08	25	social/water.jpg	false	true	right	0.21
4	2021.11.25	21:46:08	26	social/undercarriage.jpg	false	true	left	0.044
4	2021.11.25	21:46:08	27	social/gentle.jpg	false	true	left	0.266
4	2021.11.25	21:46:08	28	inanimate/uneven.jpg	false	true	left	0.081
4	2021.11.25	21:46:08	29	inanimate/wharf.jpg	false	true	left	0.111
4	2021.11.25	21:46:08	30	inanimate/wanderer.jpg	false	true	left	0.425
4	2021.11.25	21:46:08	31	social/straw.jpg	false	true	left	0.592
4	2021.11.25	21:46:08	32	social/stagecoach.jpg	true	true	right	0.297
4	2021.11.25	21:46:08	33	social/clambering.jpg	true	true	right	0.062
4	2021.11.25	21:46:08	34	social/ethnic.jpg	false	true	left	0.085
4	2021.11.25	21:46:08	35	social/fountain.jpg	true	true	right	0.33
4	2021.11.25	21:46:08	36	inanimate/observational.jpg	true	true	right	0.504
4	2021.11.25	21:46:08	37	inanimate/vocals.jpg	true	true	right	0.892
4	2021.11.25	21:46:08	38	social/departmental.jpg	false	true	left	0.362
4	2021.11.25	21:46:08	39	inanimate/straw.jpg	false	true	right	0.22
4	2021.11.25	21:46:08	40	inanimate/infected.jpg	true	true	left	0.24
4	2021.11.25	21:46:08	41	inanimate/aristocracy.jpg	true	true	right	0.251
4	2021.11.25	21:46:08	42	social/international.jpg	true	true	left	15.256
4	2021.11.25	21:46:08	43	inanimate/cake.jpg	true	true	right	1.622
4	2021.11.25	21:46:08	44	social/inmates.jpg	false	true	right	0.057
4	2021.11.25	21:46:08	45	inanimate/russet.jpg	false	true	left	0.14
4	2021.11.25	21:46:08	46	inanimate/nicotine.jpg	false	true	left	0.202
4	2021.11.25	21:46:08	47	social/simulators.jpg	false	true	right	0.06
4	2021.11.25	21:46:08	48	social/knitters.jpg	false	true	left	0.175
4	2021.11.25	21:46:08	49	social/receptions.jpg	true	true	left	0.106
4	2021.11.25	21:46:08	50	social/fattening.jpg	true	true	right	0.058
4	2021.11.25	21:46:08	51	inanimate/runaway.jpg	true	true	right	0.183
4	2021.11.25	21:46:08	52	inanimate/inhabited.jpg	true	true	right	0.227
4	2021.11.25	21:46:08	53	inanimate/resigned.jpg	true	true	left	0.026
4	2021.11.25	21:46:08	54	social/suction.jpg	true	true	right	0.028
4	2021.11.25	21:46:08	55	inanimate/retrial.jpg	true	true	left	0.041
4	2021.11.25	21:46:08	56	inanimate/solids.jpg	false	true	left	0.076
4	2021.11.25	21:46:08	57	social/wiry.jpg	false	true	right	0.206
4	2021.11.25	21:46:08	58	inanimate/allotments.jpg	true	true	left	0.171
4	2021.11.25	21:46:08	59	inanimate/living.jpg	false	true	right	0.155
4	2021.11.25	21:46:08	60	inanimate/international.jpg	true	true	left	0.155
4	2021.11.25	21:46:08	61	social/mastering.jpg	true	true	right	0.026
4	2021.11.25	21:46:08	62	inanimate/whistle.jpg	false	true	left	0.254
4	2021.11.25	21:46:08	63	social/runaway.jpg	true	true	left	0.318
4	2021.11.25	21:46:08	64	inanimate/fattening.jpg	true	true	left	0.329
4	2021.11.25	21:46:08	65	inanimate/car.jpg	false	true	left	0.189
4	2021.11.25	21:46:08	66	inanimate/departmental.jpg	false	true	left	0.188
4	2021.11.25	21:46:08	67	social/discoloured.jpg	false	true	right	0.124
4	2021.11.25	21:46:08	68	inanimate/deteriorating.jpg	false	true	left	0.059
4	2021.11.25	21:46:08	69	social/retrial.jpg	true	true	right	0.028
4	2021.11.25	21:46:08	70	social/mustered.jpg	false	true	left	0.35
4	2021.11.25	21:46:08	71	social/restraint.jpg	false	true	right	0.093
4	2021.11.25	21:46:08	72	social/nicotine.jpg	false	true	left	0.171
4	2021.11.25	21:46:08	73	inanimate/depressing.jpg	true	true	right	0.235
4	2021.11.25	21:46:08	74	social/deteriorating.jpg	false	true	left	0.299
4	2021.11.25	21:46:08	75	social/cake.jpg	true	true	right	1.771
4	2021.11.25	21:46:08	76	social/vanilla.jpg	true	true	left	0.129
4	2021.11.25	21:46:08	77	inanimate/lager.jpg	false	true	right	0.36
4	2021.11.25	21:46:08	78	social/lifts.jpg	false	true	right	0.667
4	2021.11.25	21:46:08	79	social/lager.jpg	false	true	right	0.361
4	2021.11.25	21:46:08	80	social/budding.jpg	true	true	left	0.176
4	2021.11.25	21:46:08	81	social/uneven.jpg	false	true	left	0.526
4	2021.11.25	21:46:08	82	social/altars.jpg	false	true	right	0.59
4	2021.11.25	21:46:08	83	social/closely.jpg	false	true	right	0.719
4	2021.11.25	21:46:08	84	inanimate/buses.jpg	true	true	right	0.523
4	2021.11.25	21:46:08	85	inanimate/wear.jpg	false	true	right	0.18
4	2021.11.25	21:46:08	86	inanimate/veranda.jpg	false	true	left	0.15
4	2021.11.25	21:46:08	87	social/smallholders.jpg	false	true	right	0.162
4	2021.11.25	21:46:08	88	inanimate/eroding.jpg	true	true	left	0.403
4	2021.11.25	21:46:08	89	social/inhabited.jpg	true	true	left	4.837
4	2021.11.25	21:46:08	90	social/cramming.jpg	false	true	right	0.327
4	2021.11.25	21:46:08	91	inanimate/desert.jpg	true	true	left	0.338
4	2021.11.25	21:46:08	92	inanimate/enlightened.jpg	true	true	right	0.262
4	2021.11.25	21:46:08	93	social/projecting.jpg	false	true	right	0.085
4	2021.11.25	21:46:08	94	inanimate/inmates.jpg	false	true	left	0.853
4	2021.11.25	21:46:08	95	social/wharf.jpg	false	true	right	0.27
4	2021.11.25	21:46:08	96	inanimate/budding.jpg	true	true	right	0.51
4	2021.11.25	21:46:08	97	inanimate/burials.jpg	false	true	right	0.045
4	2021.11.25	21:46:08	98	social/infected.jpg	true	true	left	0.507
4	2021.11.25	21:46:08	99	inanimate/stagecoach.jpg	true	true	right	0.316
4	2021.11.25	21:46:08	100	social/aristocracy.jpg	true	true	left	0.399
4	2021.11.25	21:46:08	101	inanimate/fountain.jpg	true	true	right	0.106
4	2021.11.25	21:46:08	102	inanimate/chopping.jpg	true	true	left	0.333
4	2021.11.25	21:46:08	103	social/tides.jpg	true	true	right	0.218
4	2021.11.25	21:46:08	104	inanimate/suction.jpg	true	true	left	0.058
4	2021.11.25	21:46:08	105	inanimate/irretrievably.jpg	true	true	right	0.093
4	2021.11.25	21:46:08	106	inanimate/mastering.jpg	true	true	right	0.545
4	2021.11.25	21:46:08	107	inanimate/gentle.jpg	false	true	left	1.125
4	2021.11.25	21:46:08	108	social/glittering.jpg	true	true	left	3.654
4	2021.11.25	21:46:08	109	social/wanderer.jpg	false	true	right	0.137
4	2021.11.25	21:46:08	110	inanimate/pillow.jpg	true	true	left	0.002
4	2021.11.25	21:46:08	111	inanimate/glittering.jpg	true	true	right	0.274
4	2021.11.25	21:46:08	112	inanimate/clambering.jpg	true	true	left	0.602
4	2021.11.25	21:46:08	113	social/observational.jpg	true	true	right	0.95
4	2021.11.25	21:46:08	114	inanimate/saloon.jpg	false	true	left	0.477
4	2021.11.25	21:46:08	115	social/fragrant.jpg	true	true	right	0.039
4	2021.11.25	21:46:08	116	social/allotments.jpg	true	true	right	1.541
4	2021.11.25	21:46:08	117	inanimate/icelandic.jpg	true	true	right	1.056
4	2021.11.25	21:46:08	118	social/jews.jpg	true	true	right	0.133
4	2021.11.25	21:46:08	119	social/trails.jpg	true	true	right	0.003
4	2021.11.25	21:46:08	120	inanimate/wiry.jpg	false	true	left	0.424
4	2021.11.25	21:46:08	121	inanimate/contractor.jpg	false	true	right	0.344
4	2021.11.25	21:46:08	122	social/burials.jpg	false	true	left	0.29
4	2021.11.25	21:46:08	123	social/wave.jpg	true	true	right	0.082
4	2021.11.25	21:46:08	124	social/chopping.jpg	true	true	right	0.681
4	2021.11.25	21:46:08	125	inanimate/closely.jpg	false	true	left	1.759
4	2021.11.25	21:46:08	126	inanimate/projecting.jpg	false	true	right	0.299
4	2021.11.25	21:46:08	127	social/car.jpg	false	true	left	0.122
4	2021.11.25	21:46:08	128	social/depressing.jpg	true	true	left	0.095
4	2021.11.25	21:46:08	129	inanimate/graduated.jpg	true	true	left	0.138
4	2021.11.25	21:46:08	130	inanimate/knitters.jpg	false	true	right	0.154
4	2021.11.25	21:46:08	131	social/russet.jpg	false	true	right	0.22
4	2021.11.25	21:46:08	132	inanimate/altars.jpg	false	true	left	0.015
4	2021.11.25	21:46:08	133	social/resigned.jpg	true	true	left	0.044
4	2021.11.25	21:46:08	134	inanimate/drummers.jpg	false	true	left	0.138
4	2021.11.25	21:46:08	135	inanimate/detecting.jpg	true	true	left	0.17
4	2021.11.25	21:46:08	136	inanimate/lifts.jpg	false	true	left	0.349
4	2021.11.25	21:46:08	137	social/manufacturing.jpg	true	true	right	0.464
4	2021.11.25	21:46:08	138	inanimate/aprons.jpg	false	true	left	0.331
4	2021.11.25	21:46:08	139	social/drummers.jpg	false	true	right	0.138
4	2021.11.25	21:46:08	140	inanimate/vanilla.jpg	true	true	left	0.187
4	2021.11.25	21:46:08	141	inanimate/cramming.jpg	false	true	right	0.224
4	2021.11.25	21:46:08	142	inanimate/ethnic.jpg	false	true	left	0.378
4	2021.11.25	21:46:08	143	social/vocals.jpg	true	true	right	0.552
4	2021.11.25	21:46:08	144	inanimate/wave.jpg	true	true	left	0.065
4	2021.11.25	21:46:08	145	social/droning.jpg	true	true	left	0.153
4	2021.11.25	21:46:08	146	social/castor.jpg	false	true	right	0.443
4	2021.11.25	21:46:08	147	inanimate/water.jpg	false	true	right	0.41
4	2021.11.25	21:46:08	148	social/living.jpg	false	true	left	0.358
4	2021.11.25	21:46:08	149	inanimate/receptions.jpg	true	true	right	0.38
4	2021.11.25	21:46:08	150	social/saloon.jpg	false	true	right	0.298
4	2021.11.25	21:46:08	151	social/pillow.jpg	true	true	right	0.252
4	2021.11.25	21:46:08	152	inanimate/droning.jpg	true	true	right	0.378
4	2021.11.25	21:46:08	153	inanimate/mustered.jpg	false	true	left	0.246
4	2021.11.25	21:46:08	154	social/whistle.jpg	false	true	right	0.334
4	2021.11.25	21:46:08	155	social/icelandic.jpg	true	true	left	0.252
4	2021.11.25	21:46:08	156	inanimate/restraint.jpg	false	true	left	0.418
num	date	subjStartTime	trialNum	stimName	flipLeft	inView	response	rt
3	2021.11.25	21:44:00	1	social/aprons.jpg	false	true	right	3.111
3	2021.11.25	21:44:00	2	social/detecting.jpg	true	true	right	5.329
3	2021.11.25	21:44:00	3	inanimate/receptions.jpg	true	true	right	1.944
3	2021.11.25	21:44:00	4	inanimate/discoloured.jpg	true	true	right	4.556
3	2021.11.25	21:44:00	5	inanimate/allotments.jpg	true	true	left	3.505
3	2021.11.25	21:44:00	6	social/buses.jpg	false	true	left	3.156
3	2021.11.25	21:44:00	7	inanimate/uneven.jpg	true	true	left	1.898
3	2021.11.25	21:44:00	8	social/suction.jpg	true	true	right	2.648
3	2021.11.25	21:44:00	9	inanimate/retrial.jpg	true	true	left	5.888
3	2021.11.25	21:44:00	10	social/discoloured.jpg	true	true	left	5.96
3	2021.11.25	21:44:00	11	social/wave.jpg	true	true	left	3.743
3	2021.11.25	21:44:00	12	social/undercarriage.jpg	false	true	right	3.585
3	2021.11.25	21:44:00	13	social/uneven.jpg	true	true	right	2.16
3	2021.11.25	21:44:00	14	inanimate/irretrievably.jpg	false	true	right	1.531
3	2021.11.25	21:44:00	15	inanimate/ethnic.jpg	false	true	left	2.329
3	2021.11.25	21:44:00	16	social/enlightened.jpg	true	true	left	1.882
3	2021.11.25	21:44:00	17	inanimate/budding.jpg	false	true	right	1.295
3	2021.11.25	21:44:00	18	inanimate/cramming.jpg	false	true	right	2.178
3	2021.11.25	21:44:00	19	social/glittering.jpg	true	true	right	3.46
3	2021.11.25	21:44:00	20	social/clambering.jpg	true	true	right	0.682
3	2021.11.25	21:44:00	21	social/allotments.jpg	true	true	left	1.342
3	2021.11.25	21:44:00	22	social/retrial.jpg	true	true	left	3.524
3	2021.11.25	21:44:00	23	social/cramming.jpg	false	true	left	1.969
3	2021.11.25	21:44:00	24	inanimate/burials.jpg	true	true	left	2.464
3	2021.11.25	21:44:00	25	social/russet.jpg	false	true	left	0.734
3	2021.11.25	21:44:00	26	social/contractor.jpg	true	true	right	1.358
3	2021.11.25	21:44:00	27	social/receptions.jpg	true	true	left	1.773
3	2021.11.25	21:44:00	28	social/inhabited.jpg	true	true	right	1.788
3	2021.11.25	21:44:00	29	inanimate/pillow.jpg	true	true	right	1.632
3	2021.11.25	21:44:00	30	inanimate/fattening.jpg	false	true	right	1.548
3	2021.11.25	21:44:00	31	inanimate/solids.jpg	false	true	left	1.935
3	2021.11.25	21:44:00	32	social/depressing.jpg	true	true	left	1.799
3	2021.11.25	21:44:00	33	inanimate/lager.jpg	true	true	left	1.671
3	2021.11.25	21:44:00	34	inanimate/diamonds.jpg	true	true	left	0.769
3	2021.11.25	21:44:00	35	inanimate/mastering.jpg	true	true	left	1.524
3	2021.11.25	21:44:00	36	inanimate/tides.jpg	true	true	left	2.143
3	2021.11.25	21:44:00	37	social/runaway.jpg	false	true	left	1.826
3	2021.11.25	21:44:00	38	inanimate/car.jpg	true	true	right	1.931
3	2021.11.25	21:44:00	39	social/wharf.jpg	false	true	left	1.694
3	2021.11.25	21:44:00	40	inanimate/inmates.jpg	false	true	right	1.342
3	2021.11.25	21:44:00	41	inanimate/closely.jpg	true	true	left	3.087
3	2021.11.25	21:44:00	42	social/fragrant.jpg	false	true	left	2.535
3	2021.11.25	21:44:00	43	social/lager.jpg	true	true	right	1.545
3	2021.11.25	21:44:00	44	social/gentle.jpg	false	true	left	1.144
3	2021.11.25	21:44:00	45	inanimate/altars.jpg	true	true	right	1.096
3	2021.11.25	21:44:00	46	social/saloon.jpg	false	true	right	0.81
3	2021.11.25	21:44:00	47	social/graduated.jpg	true	true	right	1.087
3	2021.11.25	21:44:00	48	social/infected.jpg	true	true	right	0.638
3	2021.11.25	21:44:00	49	social/ethnic.jpg	false	true	right	0.804
3	2021.11.25	21:44:00	50	inanimate/gentle.jpg	false	true	left	0.678
3	2021.11.25	21:44:00	51	social/mastering.jpg	true	true	right	0.715
3	2021.11.25	21:44:00	52	social/water.jpg	false	true	right	0.754
3	2021.11.25	21:44:00	53	inanimate/wear.jpg	false	true	right	0.732
3	2021.11.25	21:44:00	54	social/wiry.jpg	false	true	right	0.987
3	2021.11.25	21:44:00	55	inanimate/vanilla.jpg	false	true	right	1.742
3	2021.11.25	21:44:00	56	social/lifts.jpg	false	true	left	1.39
3	2021.11.25	21:44:00	57	inanimate/glittering.jpg	true	true	right	1.228
3	2021.11.25	21:44:00	58	social/tides.jpg	true	true	right	2.215
3	2021.11.25	21:44:00	59	social/international.jpg	false	true	right	0.87
3	2021.11.25	21:44:00	60	inanimate/clambering.jpg	true	true	left	1.709
3	2021.11.25	21:44:00	61	social/desert.jpg	false	true	left	1.793
3	2021.11.25	21:44:00	62	inanimate/detecting.jpg	true	true	right	2.755
3	2021.11.25	21:44:00	63	inanimate/russet.jpg	false	true	right	1.068
3	2021.11.25	21:44:00	64	social/car.jpg	true	true	left	1.301
3	2021.11.25	21:44:00	65	inanimate/projecting.jpg	false	true	left	1.151
3	2021.11.25	21:44:00	66	inanimate/living.jpg	true	true	right	1.715
3	2021.11.25	21:44:00	67	inanimate/restraint.jpg	false	true	left	1.896
3	2021.11.25	21:44:00	68	inanimate/wanderer.jpg	false	true	right	1.308
3	2021.11.25	21:44:00	69	inanimate/infected.jpg	true	true	right	1.03
3	2021.11.25	21:44:00	70	inanimate/aprons.jpg	false	true	right	1.329
3	2021.11.25	21:44:00	71	inanimate/aristocracy.jpg	true	true	right	0.725
3	2021.11.25	21:44:00	72	social/living.jpg	true	true	right	0.735
3	2021.11.25	21:44:00	73	inanimate/suction.jpg	true	true	right	0.914
3	2021.11.25	21:44:00	74	inanimate/knitters.jpg	true	true	right	0.659
3	2021.11.25	21:44:00	75	social/nicotine.jpg	false	true	left	0.543
3	2021.11.25	21:44:00	76	inanimate/graduated.jpg	true	true	right	0.826
3	2021.11.25	21:44:00	77	inanimate/castor.jpg	true	true	left	0.705
3	2021.11.25	21:44:00	78	inanimate/enlightened.jpg	true	true	left	1.651
3	2021.11.25	21:44:00	79	inanimate/drummers.jpg	true	true	right	0.915
3	2021.11.25	21:44:00	80	social/altars.jpg	true	true	left	2.378
3	2021.11.25	21:44:00	81	inanimate/fountain.jpg	false	true	left	1.893
3	2021.11.25	21:44:00	82	social/wanderer.jpg	false	true	left	1.801
3	2021.11.25	21:44:00	83	social/pillow.jpg	true	true	right	2.04
3	2021.11.25	21:44:00	84	inanimate/runaway.jpg	false	true	left	1.749
3	2021.11.25	21:44:00	85	social/wear.jpg	false	true	right	2.144
3	2021.11.25	21:44:00	86	social/solids.jpg	false	true	right	6.826
3	2021.11.25	21:44:00	87	social/simulators.jpg	false	true	right	4.984
3	2021.11.25	21:44:00	88	inanimate/chopping.jpg	false	true	right	3.14
3	2021.11.25	21:44:00	89	social/stagecoach.jpg	false	true	right	1.547
3	2021.11.25	21:44:00	90	social/diamonds.jpg	true	true	right	1.325
3	2021.11.25	21:44:00	91	inanimate/depressing.jpg	true	true	right	0.708
3	2021.11.25	21:44:00	92	social/straw.jpg	true	true	right	2.261
3	2021.11.25	21:44:00	93	inanimate/contractor.jpg	true	true	right	0.77
3	2021.11.25	21:44:00	94	inanimate/mustered.jpg	true	true	left	1.865
3	2021.11.25	21:44:00	95	social/observational.jpg	false	true	left	1.872
3	2021.11.25	21:44:00	96	inanimate/simulators.jpg	false	true	right	1.682
3	2021.11.25	21:44:00	97	social/aristocracy.jpg	true	true	right	2.133
3	2021.11.25	21:44:00	98	social/icelandic.jpg	false	true	left	4.32
3	2021.11.25	21:44:00	99	inanimate/cake.jpg	true	true	right	5.588
3	2021.11.25	21:44:00	100	social/eroding.jpg	true	true	right	0.833
3	2021.11.25	21:44:00	101	inanimate/fragrant.jpg	false	true	right	1.853
3	2021.11.25	21:44:00	102	inanimate/international.jpg	false	true	left	2.948
3	2021.11.25	21:44:00	103	social/restraint.jpg	false	true	left	2.477
3	2021.11.25	21:44:00	104	inanimate/wave.jpg	true	true	right	2.978
3	2021.11.25	21:44:00	105	inanimate/buses.jpg	false	true	right	1.785
3	2021.11.25	21:44:00	106	social/deteriorating.jpg	true	true	right	2.176
3	2021.11.25	21:44:00	107	inanimate/undercarriage.jpg	false	true	right	0.97
3	2021.11.25	21:44:00	108	social/fattening.jpg	false	true	right	0.664
3	2021.11.25	21:44:00	109	inanimate/veranda.jpg	false	true	left	1.425
3	2021.11.25	21:44:00	110	social/vocals.jpg	false	true	left	1.446
3	2021.11.25	21:44:00	111	inanimate/straw.jpg	true	true	right	2.721
3	2021.11.25	21:44:00	112	social/irretrievably.jpg	false	true	left	2.042
3	2021.11.25	21:44:00	113	social/vanilla.jpg	false	true	right	3.645
3	2021.11.25	21:44:00	114	social/whistle.jpg	true	true	left	1.041
3	2021.11.25	21:44:00	115	inanimate/icelandic.jpg	false	true	left	3.201
3	2021.11.25	21:44:00	116	inanimate/trails.jpg	true	true	left	3.604
3	2021.11.25	21:44:00	117	social/drummers.jpg	true	true	left	2.052
3	2021.11.25	21:44:00	118	social/mustered.jpg	true	true	left	1.347
3	2021.11.25	21:44:00	119	social/burials.jpg	true	true	left	1.175
3	2021.11.25	21:44:00	120	social/trails.jpg	true	true	left	2.045
3	2021.11.25	21:44:00	121	inanimate/vocals.jpg	false	true	right	2.323
3	2021.11.25	21:44:00	122	social/jews.jpg	true	true	left	3.756
3	2021.11.25	21:44:00	123	inanimate/nicotine.jpg	false	true	right	1.991
3	2021.11.25	21:44:00	124	inanimate/observational.jpg	false	true	left	1.921
3	2021.11.25	21:44:00	125	inanimate/stagecoach.jpg	false	true	left	1.707
3	2021.11.25	21:44:00	126	social/veranda.jpg	false	true	right	1.301
3	2021.11.25	21:44:00	127	social/projecting.jpg	false	true	right	1.094
3	2021.11.25	21:44:00	128	social/droning.jpg	true	true	left	3.561
3	2021.11.25	21:44:00	129	inanimate/desert.jpg	false	true	right	1.271
3	2021.11.25	21:44:00	130	inanimate/inhabited.jpg	true	true	left	2.248
3	2021.11.25	21:44:00	131	inanimate/droning.jpg	true	true	left	1.655
3	2021.11.25	21:44:00	132	inanimate/resigned.jpg	false	true	left	3.323
3	2021.11.25	21:44:00	133	inanimate/departmental.jpg	false	true	left	1.035
3	2021.11.25	21:44:00	134	inanimate/jews.jpg	true	true	left	1.688
3	2021.11.25	21:44:00	135	social/knitters.jpg	true	true	left	2.158
3	2021.11.25	21:44:00	136	social/smallholders.jpg	false	true	left	1.302
3	2021.11.25	21:44:00	137	social/manufacturing.jpg	false	true	left	0.797
3	2021.11.25	21:44:00	138	social/departmental.jpg	false	true	left	0.578
3	2021.11.25	21:44:00	139	inanimate/smallholders.jpg	false	true	right	1.428
3	2021.11.25	21:44:00	140	inanimate/whistle.jpg	true	true	right	0.823
3	2021.11.25	21:44:00	141	inanimate/saloon.jpg	false	true	left	1.082
3	2021.11.25	21:44:00	142	inanimate/water.jpg	false	true	right	1.859
3	2021.11.25	21:44:00	143	social/closely.jpg	true	true	left	1.286
3	2021.11.25	21:44:00	144	inanimate/wharf.jpg	false	true	right	2.187
3	2021.11.25	21:44:00	145	social/cake.jpg	true	true	right	1.088
3	2021.11.25	21:44:00	146	inanimate/eroding.jpg	true	true	left	2.501
3	2021.11.25	21:44:00	147	inanimate/wiry.jpg	false	true	right	1.672
3	2021.11.25	21:44:00	148	social/fountain.jpg	false	true	right	1.73
3	2021.11.25	21:44:00	149	inanimate/deteriorating.jpg	true	true	right	1.441
3	2021.11.25	21:44:00	150	social/budding.jpg	false	true	right	1.52
3	2021.11.25	21:44:00	151	inanimate/manufacturing.jpg	false	true	right	1.517
3	2021.11.25	21:44:00	152	social/resigned.jpg	false	true	left	5.449
3	2021.11.25	21:44:00	153	social/inmates.jpg	false	true	right	2.256
3	2021.11.25	21:44:00	154	social/chopping.jpg	false	true	right	1.284
3	2021.11.25	21:44:00	155	social/castor.jpg	true	true	left	4.323
3	2021.11.25	21:44:00	156	inanimate/lifts.jpg	false	true	right	3.221
num	date	subjStartTime	trialNum	stimName	flipLeft	inView	response	rt
5	2021.11.25	22:07:57	1	inanimate/nicotine.jpg	true	true	right	3.067
5	2021.11.25	22:07:57	2	inanimate/drummers.jpg	false	true	right	8.978
5	2021.11.25	22:07:57	3	inanimate/wharf.jpg	false	true	right	1.782
5	2021.11.25	22:07:57	4	inanimate/fattening.jpg	false	true	right	2.864
5	2021.11.25	22:07:57	5	social/enlightened.jpg	false	true	left	1.988
5	2021.11.25	22:07:57	6	inanimate/buses.jpg	false	true	left	3.253
5	2021.11.25	22:07:57	7	social/retrial.jpg	false	true	left	3.289
5	2021.11.25	22:07:57	8	social/whistle.jpg	false	true	right	5.959
5	2021.11.25	22:07:57	9	inanimate/wiry.jpg	true	true	right	3.748
5	2021.11.25	22:07:57	10	social/international.jpg	true	true	left	1.35
5	2021.11.25	22:07:57	11	social/ethnic.jpg	false	true	left	3.833
5	2021.11.25	22:07:57	12	social/suction.jpg	true	true	left	1.318
5	2021.11.25	22:07:57	13	inanimate/observational.jpg	false	true	left	2.371
5	2021.11.25	22:07:57	14	inanimate/burials.jpg	true	true	left	1.676
5	2021.11.25	22:07:57	15	social/inhabited.jpg	true	true	left	1.186
5	2021.11.25	22:07:57	16	inanimate/uneven.jpg	false	true	right	4.104
5	2021.11.25	22:07:57	17	inanimate/departmental.jpg	false	true	right	1.582
5	2021.11.25	22:07:57	18	social/drummers.jpg	false	true	left	1.147
5	2021.11.25	22:07:57	19	social/buses.jpg	false	true	right	4.719
5	2021.11.25	22:07:57	20	social/lager.jpg	true	true	left	1.863
5	2021.11.25	22:07:57	21	social/contractor.jpg	false	true	left	1.098
5	2021.11.25	22:07:57	22	inanimate/aristocracy.jpg	false	true	right	2.042
5	2021.11.25	22:07:57	23	inanimate/solids.jpg	true	true	right	1.473
5	2021.11.25	22:07:57	24	inanimate/wear.jpg	false	true	left	2.034
5	2021.11.25	22:07:57	25	inanimate/ethnic.jpg	false	true	left	2.338
5	2021.11.25	22:07:57	26	social/wanderer.jpg	true	true	left	2.11
5	2021.11.25	22:07:57	27	inanimate/chopping.jpg	true	true	right	1.244
5	2021.11.25	22:07:57	28	social/car.jpg	false	true	left	1.913
5	2021.11.25	22:07:57	29	social/receptions.jpg	true	true	right	2.068
5	2021.11.25	22:07:57	30	inanimate/detecting.jpg	true	true	right	1.113
5	2021.11.25	22:07:57	31	inanimate/discoloured.jpg	false	true	right	3.488
5	2021.11.25	22:07:57	32	social/chopping.jpg	true	true	left	2.118
5	2021.11.25	22:07:57	33	social/knitters.jpg	false	true	left	1.147
5	2021.11.25	22:07:57	34	social/departmental.jpg	false	true	right	2.514
5	2021.11.25	22:07:57	35	inanimate/retrial.jpg	false	true	left	1.786
5	2021.11.25	22:07:57	36	inanimate/contractor.jpg	false	true	left	1.194
5	2021.11.25	22:07:57	37	inanimate/receptions.jpg	true	true	right	3.797
5	2021.11.25	22:07:57	38	social/fountain.jpg	true	true	right	1.456
5	2021.11.25	22:07:57	39	social/manufacturing.jpg	true	true	right	1.968
5	2021.11.25	22:07:57	40	inanimate/trails.jpg	false	true	right	0.886
5	2021.11.25	22:07:57	41	inanimate/altars.jpg	false	true	left	1.335
5	2021.11.25	22:07:57	42	inanimate/castor.jpg	true	true	right	1.001
5	2021.11.25	22:07:57	43	inanimate/jews.jpg	false	true	right	1.031
5	2021.11.25	22:07:57	44	social/droning.jpg	true	true	right	0.902
5	2021.11.25	22:07:57	45	social/veranda.jpg	false	true	left	1.082
5	2021.11.25	22:07:57	46	inanimate/wave.jpg	false	true	left	0.917
5	2021.11.25	22:07:57	47	social/trails.jpg	false	true	right	0.991
5	2021.11.25	22:07:57	48	inanimate/glittering.jpg	false	true	right	0.818
5	2021.11.25	22:07:57	49	social/aristocracy.jpg	false	true	left	1.189
5	2021.11.25	22:07:57	50	inanimate/allotments.jpg	false	true	right	0.575
5	2021.11.25	22:07:57	51	inanimate/budding.jpg	true	true	left	0.69
5	2021.11.25	22:07:57	52	social/icelandic.jpg	false	true	left	1.148
5	2021.11.25	22:07:57	53	inanimate/runaway.jpg	true	true	left	0.836
5	2021.11.25	22:07:57	54	inanimate/simulators.jpg	true	true	right	0.674
5	2021.11.25	22:07:57	55	social/gentle.jpg	false	true	right	0.956
5	2021.11.25	22:07:57	56	social/saloon.jpg	false	true	left	2.399
5	2021.11.25	22:07:57	57	social/fragrant.jpg	false	true	left	1.594
5	2021.11.25	22:07:57	58	social/detecting.jpg	true	true	right	1.228
5	2021.11.25	22:07:57	59	social/inmates.jpg	false	true	left	3.381
5	2021.11.25	22:07:57	60	inanimate/undercarriage.jpg	true	true	left	1.388
5	2021.11.25	22:07:57	61	inanimate/fragrant.jpg	false	true	left	1.018
5	2021.11.25	22:07:57	62	inanimate/knitters.jpg	false	true	left	1.791
5	2021.11.25	22:07:57	63	social/infected.jpg	false	true	left	1.528
5	2021.11.25	22:07:57	64	social/aprons.jpg	true	true	left	1.439
5	2021.11.25	22:07:57	65	social/vocals.jpg	true	true	left	1.291
5	2021.11.25	22:07:57	66	inanimate/cramming.jpg	true	true	left	2.037
5	2021.11.25	22:07:57	67	social/pillow.jpg	true	true	left	1
5	2021.11.25	22:07:57	68	inanimate/clambering.jpg	true	true	left	0.877
5	2021.11.25	22:07:57	69	social/simulators.jpg	true	true	left	1.068
5	2021.11.25	22:07:57	70	inanimate/smallholders.jpg	true	true	left	1.11
5	2021.11.25	22:07:57	71	inanimate/lifts.jpg	false	true	right	1.031
5	2021.11.25	22:07:57	72	social/stagecoach.jpg	true	true	right	1.357
5	2021.11.25	22:07:57	73	social/observational.jpg	false	true	right	1.244
5	2021.11.25	22:07:57	74	inanimate/whistle.jpg	false	true	right	0.665
5	2021.11.25	22:07:57	75	social/budding.jpg	true	true	right	0.797
5	2021.11.25	22:07:57	76	inanimate/resigned.jpg	true	true	right	0.662
5	2021.11.25	22:07:57	77	social/straw.jpg	true	true	right	1.069
5	2021.11.25	22:07:57	78	social/resigned.jpg	true	true	right	2.85
5	2021.11.25	22:07:57	79	social/jews.jpg	false	true	right	0.999
5	2021.11.25	22:07:57	80	inanimate/inhabited.jpg	true	true	right	1.496
5	2021.11.25	22:07:57	81	inanimate/saloon.jpg	false	true	right	0.618
5	2021.11.25	22:07:57	82	social/wave.jpg	false	true	left	1.506
5	2021.11.25	22:07:57	83	inanimate/stagecoach.jpg	true	true	left	2.035
5	2021.11.25	22:07:57	84	social/graduated.jpg	false	true	left	0.87
5	2021.11.25	22:07:57	85	social/closely.jpg	true	true	left	0.917
5	2021.11.25	22:07:57	86	social/nicotine.jpg	true	true	left	1.611
5	2021.11.25	22:07:57	87	social/russet.jpg	false	true	right	0.746
5	2021.11.25	22:07:57	88	inanimate/car.jpg	false	true	left	0.632
5	2021.11.25	22:07:57	89	social/undercarriage.jpg	true	true	right	0.654
5	2021.11.25	22:07:57	90	social/wharf.jpg	false	true	left	1.605
5	2021.11.25	22:07:57	91	inanimate/wanderer.jpg	true	true	left	0.893
5	2021.11.25	22:07:57	92	inanimate/veranda.jpg	false	true	left	0.681
5	2021.11.25	22:07:57	93	inanimate/vanilla.jpg	false	true	left	0.805
5	2021.11.25	22:07:57	94	inanimate/restraint.jpg	true	true	left	0.6
5	2021.11.25	22:07:57	95	social/deteriorating.jpg	false	true	left	0.648
5	2021.11.25	22:07:57	96	social/eroding.jpg	true	true	right	1.679
5	2021.11.25	22:07:57	97	social/cramming.jpg	true	true	right	1.139
5	2021.11.25	22:07:57	98	inanimate/gentle.jpg	false	true	left	0.753
5	2021.11.25	22:07:57	99	inanimate/diamonds.jpg	true	true	left	1.025
5	2021.11.25	22:07:57	100	social/uneven.jpg	false	true	left	1.13
5	2021.11.25	22:07:57	101	inanimate/suction.jpg	true	true	right	0.85
5	2021.11.25	22:07:57	102	social/restraint.jpg	true	true	left	1.362
5	2021.11.25	22:07:57	103	social/runaway.jpg	true	true	right	2.297
5	2021.11.25	22:07:57	104	inanimate/tides.jpg	true	true	right	1.032
5	2021.11.25	22:07:57	105	social/glittering.jpg	false	true	left	1.721
5	2021.11.25	22:07:57	106	inanimate/manufacturing.jpg	true	true	right	0.769
5	2021.11.25	22:07:57	107	social/allotments.jpg	false	true	left	1.162
5	2021.11.25	22:07:57	108	inanimate/deteriorating.jpg	false	true	right	0.698
5	2021.11.25	22:07:57	109	social/water.jpg	true	true	right	0.951
5	2021.11.25	22:07:57	110	social/smallholders.jpg	true	true	right	1.074
5	2021.11.25	22:07:57	111	inanimate/fountain.jpg	true	true	right	0.666
5	2021.11.25	22:07:57	112	inanimate/eroding.jpg	true	true	right	0.534
5	2021.11.25	22:07:57	113	inanimate/straw.jpg	true	true	right	0.486
5	2021.11.25	22:07:57	114	social/depressing.jpg	false	true	right	0.869
5	2021.11.25	22:07:57	115	social/altars.jpg	false	true	right	0.454
5	2021.11.25	22:07:57	116	social/castor.jpg	true	true	right	0.404
5	2021.11.25	22:07:57	117	social/solids.jpg	true	true	left	1.074
5	2021.11.25	22:07:57	118	inanimate/russet.jpg	false	true	left	0.853
5	2021.11.25	22:07:57	119	social/wear.jpg	false	true	left	0.764
5	2021.11.25	22:07:57	120	inanimate/closely.jpg	true	true	left	0.689
5	2021.11.25	22:07:57	121	inanimate/aprons.jpg	true	true	left	0.615
5	2021.11.25	22:07:57	122	inanimate/international.jpg	true	true	left	0.494
5	2021.11.25	22:07:57	123	social/projecting.jpg	true	true	left	0.428
5	2021.11.25	22:07:57	124	social/irretrievably.jpg	true	true	right	0.926
5	2021.11.25	22:07:57	125	social/mustered.jpg	false	true	right	0.833
5	2021.11.25	22:07:57	126	inanimate/enlightened.jpg	false	true	right	0.415
5	2021.11.25	22:07:57	127	inanimate/depressing.jpg	false	true	right	0.386
5	2021.11.25	22:07:57	128	inanimate/desert.jpg	true	true	right	0.372
5	2021.11.25	22:07:57	129	social/burials.jpg	true	true	left	0.787
5	2021.11.25	22:07:57	130	inanimate/vocals.jpg	true	true	right	0.478
5	2021.11.25	22:07:57	131	inanimate/lager.jpg	true	true	right	0.418
5	2021.11.25	22:07:57	132	inanimate/pillow.jpg	true	true	left	0.545
5	2021.11.25	22:07:57	133	social/vanilla.jpg	false	true	right	0.404
5	2021.11.25	22:07:57	134	social/fattening.jpg	false	true	right	1.554
5	2021.11.25	22:07:57	135	inanimate/mastering.jpg	false	true	left	0.618
5	2021.11.25	22:07:57	136	social/discoloured.jpg	false	true	right	1.123
5	2021.11.25	22:07:57	137	inanimate/infected.jpg	false	true	right	0.55
5	2021.11.25	22:07:57	138	inanimate/projecting.jpg	true	true	right	0.601
5	2021.11.25	22:07:57	139	social/desert.jpg	true	true	left	2.15
5	2021.11.25	22:07:57	140	inanimate/cake.jpg	true	true	left	0.963
5	2021.11.25	22:07:57	141	social/diamonds.jpg	true	true	right	0.723
5	2021.11.25	22:07:57	142	social/living.jpg	false	true	left	1.18
5	2021.11.25	22:07:57	143	inanimate/icelandic.jpg	false	true	right	0.875
5	2021.11.25	22:07:57	144	social/cake.jpg	true	true	right	2.081
5	2021.11.25	22:07:57	145	inanimate/irretrievably.jpg	true	true	right	0.672
5	2021.11.25	22:07:57	146	inanimate/droning.jpg	true	true	right	0.9
5	2021.11.25	22:07:57	147	inanimate/graduated.jpg	false	true	right	1.369
5	2021.11.25	22:07:57	148	social/mastering.jpg	false	true	left	0.902
5	2021.11.25	22:07:57	149	social/lifts.jpg	false	true	left	2.387
5	2021.11.25	22:07:57	150	inanimate/mustered.jpg	false	true	left	1.303
5	2021.11.25	22:07:57	151	inanimate/inmates.jpg	false	true	right	5.384
5	2021.11.25	22:07:57	152	inanimate/water.jpg	true	true	left	1.592
5	2021.11.25	22:07:57	153	social/tides.jpg	true	true	left	1.944
5	2021.11.25	22:07:57	154	inanimate/living.jpg	false	true	left	0.927
5	2021.11.25	22:07:57	155	social/clambering.jpg	true	true	left	2.034
5	2021.11.25	22:07:57	156	social/wiry.jpg	true	true	right	1.246
num	date	subjStartTime	trialNum	stimName	flipLeft	inView	response	rt
6	2021.11.25	23:59:36	1	social/whistle.jpg	true	true	left	28.521
6	2021.11.25	23:59:36	2	inanimate/chopping.jpg	false	true	right	7.493
6	2021.11.25	23:59:36	3	inanimate/suction.jpg	false	true	right	6.842
6	2021.11.25	23:59:36	4	inanimate/pillow.jpg	true	true	right	2.42
6	2021.11.25	23:59:36	5	social/wiry.jpg	false	true	right	3.035
6	2021.11.25	23:59:36	6	inanimate/ethnic.jpg	false	true	right	6.956
6	2021.11.25	23:59:36	7	inanimate/gentle.jpg	true	true	left	1.682
6	2021.11.25	23:59:36	8	social/suction.jpg	false	true	left	8.867
6	2021.11.25	23:59:36	9	inanimate/wharf.jpg	false	true	right	15.01
6	2021.11.25	23:59:36	10	social/resigned.jpg	true	true	left	12.474
6	2021.11.25	23:59:36	11	social/vanilla.jpg	false	true	right	1.894
6	2021.11.25	23:59:36	12	social/altars.jpg	true	true	right	5.205
6	2021.11.25	23:59:36	13	social/glittering.jpg	true	true	right	2.96
6	2021.11.25	23:59:36	14	inanimate/allotments.jpg	false	true	right	2.62
6	2021.11.25	23:59:36	15	social/trails.jpg	false	true	left	2.352
6	2021.11.25	23:59:36	16	social/vocals.jpg	true	true	right	2.847
6	2021.11.25	23:59:36	17	inanimate/depressing.jpg	true	true	right	2.054
6	2021.11.25	23:59:36	18	social/projecting.jpg	true	true	left	1.575
6	2021.11.25	23:59:36	19	inanimate/deteriorating.jpg	false	true	right	1.519
6	2021.11.25	23:59:36	20	inanimate/trails.jpg	false	true	right	1.743
6	2021.11.25	23:59:36	21	inanimate/discoloured.jpg	false	true	left	4.645
6	2021.11.25	23:59:36	22	social/retrial.jpg	false	true	left	5.329
6	2021.11.25	23:59:36	23	social/tides.jpg	false	true	left	1.69
6	2021.11.25	23:59:36	24	social/undercarriage.jpg	true	true	right	1.052
6	2021.11.25	23:59:36	25	inanimate/vocals.jpg	true	true	right	1.099
6	2021.11.25	23:59:36	26	social/budding.jpg	false	true	right	2.234
6	2021.11.25	23:59:36	27	inanimate/aristocracy.jpg	false	true	right	1.651
6	2021.11.25	23:59:36	28	inanimate/retrial.jpg	false	true	right	6.389
6	2021.11.25	23:59:36	29	social/icelandic.jpg	true	true	left	3.494
6	2021.11.25	23:59:36	30	inanimate/mastering.jpg	true	true	right	2.742
6	2021.11.25	23:59:36	31	inanimate/runaway.jpg	false	true	left	1.424
6	2021.11.25	23:59:36	32	inanimate/aprons.jpg	true	true	left	3.065
6	2021.11.25	23:59:36	33	social/observational.jpg	true	true	left	1.822
6	2021.11.25	23:59:36	34	social/straw.jpg	true	true	right	7.321
6	2021.11.25	23:59:36	35	social/pillow.jpg	true	true	right	4.99
6	2021.11.25	23:59:36	36	social/cake.jpg	true	true	right	1.221
6	2021.11.25	23:59:36	37	social/nicotine.jpg	true	true	right	1.657
6	2021.11.25	23:59:36	38	inanimate/water.jpg	false	true	right	0.146
6	2021.11.25	23:59:36	39	social/gentle.jpg	true	true	right	0.092
6	2021.11.25	23:59:36	40	social/mastering.jpg	true	true	right	0.098
6	2021.11.25	23:59:36	41	inanimate/fattening.jpg	true	true	right	0.089
6	2021.11.25	23:59:36	42	inanimate/straw.jpg	true	true	right	0.075
6	2021.11.25	23:59:36	43	inanimate/vanilla.jpg	false	true	right	0.066
6	2021.11.25	23:59:36	44	social/departmental.jpg	false	true	right	0.103
6	2021.11.25	23:59:36	45	social/lifts.jpg	false	true	right	0.125
6	2021.11.25	23:59:36	46	social/smallholders.jpg	false	true	right	0.13
6	2021.11.25	23:59:36	47	social/diamonds.jpg	false	true	right	0.167
6	2021.11.25	23:59:36	48	inanimate/smallholders.jpg	false	true	right	0.157
6	2021.11.25	23:59:36	49	social/allotments.jpg	false	true	right	0.158
6	2021.11.25	23:59:36	50	inanimate/infected.jpg	false	true	right	0.02
6	2021.11.25	23:59:36	51	inanimate/living.jpg	true	true	right	0.06
6	2021.11.25	23:59:36	52	inanimate/receptions.jpg	false	true	right	0.025
6	2021.11.25	23:59:36	53	social/enlightened.jpg	true	true	right	0.058
6	2021.11.25	23:59:36	54	social/saloon.jpg	true	true	right	0.073
6	2021.11.25	23:59:36	55	social/aristocracy.jpg	false	true	right	0.086
6	2021.11.25	23:59:36	56	social/irretrievably.jpg	true	true	right	0.082
6	2021.11.25	23:59:36	57	inanimate/restraint.jpg	false	true	right	0.15
6	2021.11.25	23:59:36	58	inanimate/stagecoach.jpg	false	true	right	0.041
6	2021.11.25	23:59:36	59	inanimate/glittering.jpg	true	true	right	0.047
6	2021.11.25	23:59:36	60	inanimate/drummers.jpg	true	true	right	0.09
6	2021.11.25	23:59:36	61	social/knitters.jpg	true	true	right	0.045
6	2021.11.25	23:59:36	62	social/lager.jpg	true	true	right	0.029
6	2021.11.25	23:59:36	63	social/russet.jpg	true	true	right	0.015
6	2021.11.25	23:59:36	64	social/international.jpg	false	true	right	0.015
6	2021.11.25	23:59:36	65	social/fountain.jpg	false	true	right	0.026
6	2021.11.25	23:59:36	66	social/infected.jpg	false	true	right	0.035
6	2021.11.25	23:59:36	67	inanimate/cramming.jpg	true	true	right	0.03
6	2021.11.25	23:59:36	68	social/inhabited.jpg	true	true	right	0.243
6	2021.11.25	23:59:36	69	inanimate/wear.jpg	true	true	right	0.293
6	2021.11.25	23:59:36	70	social/manufacturing.jpg	false	true	right	0.276
6	2021.11.25	23:59:36	71	social/ethnic.jpg	false	true	right	0.192
6	2021.11.25	23:59:36	72	social/veranda.jpg	false	true	right	0.277
6	2021.11.25	23:59:36	73	inanimate/manufacturing.jpg	false	true	right	0.362
6	2021.11.25	23:59:36	74	inanimate/enlightened.jpg	true	true	right	0.181
6	2021.11.25	23:59:36	75	social/aprons.jpg	true	true	right	0.135
6	2021.11.25	23:59:36	76	inanimate/tides.jpg	false	true	right	0.271
6	2021.11.25	23:59:36	77	social/droning.jpg	true	true	right	0.247
6	2021.11.25	23:59:36	78	social/receptions.jpg	false	true	right	0.235
6	2021.11.25	23:59:36	79	social/detecting.jpg	true	true	right	0.255
6	2021.11.25	23:59:36	80	social/fattening.jpg	true	true	right	0.219
6	2021.11.25	23:59:36	81	social/chopping.jpg	false	true	right	0.266
6	2021.11.25	23:59:36	82	social/discoloured.jpg	false	true	right	0.201
6	2021.11.25	23:59:36	83	inanimate/departmental.jpg	false	true	right	0.27
6	2021.11.25	23:59:36	84	inanimate/knitters.jpg	true	true	right	0.273
6	2021.11.25	23:59:36	85	inanimate/resigned.jpg	true	true	right	0.251
6	2021.11.25	23:59:36	86	inanimate/cake.jpg	true	true	right	0.059
6	2021.11.25	23:59:36	87	inanimate/clambering.jpg	true	true	right	0.03
6	2021.11.25	23:59:36	88	social/runaway.jpg	false	true	right	0.022
6	2021.11.25	23:59:36	89	inanimate/budding.jpg	false	true	right	0.027
6	2021.11.25	23:59:36	90	social/wharf.jpg	false	true	right	0.031
6	2021.11.25	23:59:36	91	social/buses.jpg	false	true	right	0.005
6	2021.11.25	23:59:36	92	inanimate/uneven.jpg	false	true	right	0.187
6	2021.11.25	23:59:36	93	inanimate/wanderer.jpg	true	true	right	0.025
6	2021.11.25	23:59:36	94	social/car.jpg	true	true	right	0.019
6	2021.11.25	23:59:36	95	social/wanderer.jpg	true	true	right	0.004
6	2021.11.25	23:59:36	96	inanimate/projecting.jpg	true	true	right	0.006
6	2021.11.25	23:59:36	97	inanimate/wiry.jpg	false	true	right	99.494
6	2021.11.25	23:59:36	98	inanimate/saloon.jpg	true	true	right	3.551
6	2021.11.25	23:59:36	99	inanimate/observational.jpg	true	true	right	0.866
6	2021.11.25	23:59:36	100	social/inmates.jpg	false	true	right	3.948
6	2021.11.25	23:59:36	101	inanimate/castor.jpg	false	true	right	1.072
6	2021.11.25	23:59:36	102	social/uneven.jpg	false	true	right	1.295
6	2021.11.25	23:59:36	103	social/water.jpg	false	true	right	0.858
6	2021.11.25	23:59:36	104	inanimate/inmates.jpg	false	true	right	0.604
6	2021.11.25	23:59:36	105	inanimate/diamonds.jpg	false	true	right	0.55
6	2021.11.25	23:59:36	106	inanimate/icelandic.jpg	true	true	right	0.723
6	2021.11.25	23:59:36	107	inanimate/solids.jpg	true	true	right	3.734
6	2021.11.25	23:59:36	108	inanimate/fragrant.jpg	false	true	right	0.676
6	2021.11.25	23:59:36	109	social/eroding.jpg	true	true	right	1.491
6	2021.11.25	23:59:36	110	inanimate/irretrievably.jpg	true	true	right	1.344
6	2021.11.25	23:59:36	111	inanimate/detecting.jpg	true	true	left	14.505
6	2021.11.25	23:59:36	112	social/desert.jpg	false	true	left	11.139
6	2021.11.25	23:59:36	113	social/jews.jpg	true	true	right	10.678
6	2021.11.25	23:59:36	114	inanimate/contractor.jpg	false	true	left	1.692
6	2021.11.25	23:59:36	115	social/restraint.jpg	false	true	left	8.643
6	2021.11.25	23:59:36	116	inanimate/wave.jpg	true	true	right	2.706
6	2021.11.25	23:59:36	117	social/drummers.jpg	true	true	left	11.306
6	2021.11.25	23:59:36	118	inanimate/fountain.jpg	false	true	left	2.409
6	2021.11.25	23:59:36	119	social/deteriorating.jpg	false	true	left	0.261
6	2021.11.25	23:59:36	120	inanimate/whistle.jpg	true	true	left	0.102
6	2021.11.25	23:59:36	121	social/fragrant.jpg	false	true	left	0.204
6	2021.11.25	23:59:36	122	inanimate/eroding.jpg	true	true	left	0.011
6	2021.11.25	23:59:36	123	social/contractor.jpg	false	true	left	0.137
6	2021.11.25	23:59:36	124	inanimate/inhabited.jpg	true	true	left	0.022
6	2021.11.25	23:59:36	125	inanimate/buses.jpg	false	true	left	0.218
6	2021.11.25	23:59:36	126	social/stagecoach.jpg	false	true	left	0.045
6	2021.11.25	23:59:36	127	social/living.jpg	true	true	left	0.035
6	2021.11.25	23:59:36	128	inanimate/graduated.jpg	false	true	left	0.04
6	2021.11.25	23:59:36	129	inanimate/international.jpg	false	true	left	0.036
6	2021.11.25	23:59:36	130	inanimate/burials.jpg	false	true	left	0.152
6	2021.11.25	23:59:36	131	inanimate/closely.jpg	true	true	left	0.09
6	2021.11.25	23:59:36	132	inanimate/lager.jpg	true	true	left	0.13
6	2021.11.25	23:59:36	133	social/castor.jpg	false	true	left	0.152
6	2021.11.25	23:59:36	134	inanimate/mustered.jpg	false	true	left	0.694
6	2021.11.25	23:59:36	135	inanimate/nicotine.jpg	true	true	left	0.679
6	2021.11.25	23:59:36	136	inanimate/car.jpg	true	true	left	0.638
6	2021.11.25	23:59:36	137	inanimate/droning.jpg	true	true	left	3.563
6	2021.11.25	23:59:36	138	social/wave.jpg	true	true	right	5.591
6	2021.11.25	23:59:36	139	social/solids.jpg	true	true	right	0.633
6	2021.11.25	23:59:36	140	social/clambering.jpg	true	true	right	0.662
6	2021.11.25	23:59:36	141	social/graduated.jpg	false	true	right	0.426
6	2021.11.25	23:59:36	142	social/simulators.jpg	false	true	right	0.373
6	2021.11.25	23:59:36	143	social/depressing.jpg	true	true	right	0.112
6	2021.11.25	23:59:36	144	inanimate/russet.jpg	true	true	right	0.12
6	2021.11.25	23:59:36	145	social/closely.jpg	true	true	right	0.083
6	2021.11.25	23:59:36	146	social/wear.jpg	true	true	left	0.277
6	2021.11.25	23:59:36	147	social/mustered.jpg	false	true	right	0.052
6	2021.11.25	23:59:36	148	inanimate/veranda.jpg	false	true	left	0.161
6	2021.11.25	23:59:36	149	inanimate/altars.jpg	true	true	right	0.171
6	2021.11.25	23:59:36	150	social/cramming.jpg	true	true	right	0.008
6	2021.11.25	23:59:36	151	social/burials.jpg	false	true	right	0.011
6	2021.11.25	23:59:36	152	inanimate/desert.jpg	false	true	right	0.147
6	2021.11.25	23:59:36	153	inanimate/lifts.jpg	false	true	right	0.162
6	2021.11.25	23:59:36	154	inanimate/jews.jpg	true	true	right	0.149
6	2021.11.25	23:59:36	155	inanimate/undercarriage.jpg	true	true	right	0.176
6	2021.11.25	23:59:36	156	inanimate/simulators.jpg	false	true	left	0.382
num	date	subjStartTime	trialNum	stimName	flipLeft	inView	response	rt
7	2021.11.26	01:33:04	1	inanimate/whistle.jpg	false	true	left	11.766
7	2021.11.26	01:33:04	2	social/irretrievably.jpg	true	true	left	13.308
7	2021.11.26	01:33:04	3	social/burials.jpg	true	true	left	14.509
7	2021.11.26	01:33:04	4	inanimate/manufacturing.jpg	false	true	left	14.2
7	2021.11.26	01:33:04	5	social/buses.jpg	false	true	left	12.016
7	2021.11.26	01:33:04	6	social/clambering.jpg	false	true	right	6.451
7	2021.11.26	01:33:04	7	social/aprons.jpg	true	true	left	10.422
7	2021.11.26	01:33:04	8	inanimate/detecting.jpg	false	true	right	6.129
7	2021.11.26	01:33:04	9	inanimate/veranda.jpg	true	true	left	19.134
7	2021.11.26	01:33:04	10	inanimate/knitters.jpg	true	true	right	9.966
7	2021.11.26	01:33:04	11	social/projecting.jpg	false	true	left	14.336
7	2021.11.26	01:33:04	12	inanimate/infected.jpg	false	true	left	116.825
7	2021.11.26	01:33:04	13	inanimate/receptions.jpg	true	true	left	1.972
7	2021.11.26	01:33:04	14	social/fattening.jpg	false	true	right	1.111
7	2021.11.26	01:33:04	15	social/glittering.jpg	false	true	left	25.456
7	2021.11.26	01:33:04	16	inanimate/stagecoach.jpg	true	true	right	9.531
7	2021.11.26	01:33:04	17	social/living.jpg	true	true	right	7.551
7	2021.11.26	01:33:04	18	social/icelandic.jpg	true	true	right	5.635
7	2021.11.26	01:33:04	19	inanimate/retrial.jpg	false	true	left	8.404
7	2021.11.26	01:33:04	20	social/saloon.jpg	false	true	right	6.421
7	2021.11.26	01:33:04	21	social/straw.jpg	false	true	left	3.518
7	2021.11.26	01:33:04	22	inanimate/nicotine.jpg	false	true	right	9.721
7	2021.11.26	01:33:04	23	inanimate/fattening.jpg	false	true	left	6.841
7	2021.11.26	01:33:04	24	social/contractor.jpg	false	true	right	13.147
7	2021.11.26	01:33:04	25	inanimate/discoloured.jpg	true	true	right	21.589
7	2021.11.26	01:33:04	26	inanimate/fountain.jpg	false	true	left	5.678
7	2021.11.26	01:33:04	27	social/eroding.jpg	false	true	right	18.688
7	2021.11.26	01:33:04	28	inanimate/gentle.jpg	true	true	left	6.082
7	2021.11.26	01:33:04	29	social/deteriorating.jpg	true	true	right	5.287
7	2021.11.26	01:33:04	30	social/ethnic.jpg	false	true	right	8.263
7	2021.11.26	01:33:04	31	social/wiry.jpg	true	true	left	7.121
7	2021.11.26	01:33:04	32	social/droning.jpg	true	true	right	7.391
7	2021.11.26	01:33:04	33	inanimate/drummers.jpg	true	true	right	5.839
7	2021.11.26	01:33:04	34	social/wharf.jpg	false	true	left	7.667
7	2021.11.26	01:33:04	35	inanimate/aprons.jpg	true	true	left	6.05
7	2021.11.26	01:33:04	36	inanimate/straw.jpg	false	true	left	4.099
7	2021.11.26	01:33:04	37	social/graduated.jpg	true	true	right	11.354
7	2021.11.26	01:33:04	38	social/closely.jpg	true	true	left	5.701
7	2021.11.26	01:33:04	39	inanimate/projecting.jpg	false	true	left	4.995
7	2021.11.26	01:33:04	40	social/car.jpg	false	true	left	6.03
7	2021.11.26	01:33:04	41	social/knitters.jpg	true	true	left	19.93
7	2021.11.26	01:33:04	42	social/russet.jpg	false	true	left	18.427
7	2021.11.26	01:33:04	43	social/whistle.jpg	false	true	left	7.55
7	2021.11.26	01:33:04	44	social/mastering.jpg	true	true	left	19.242
7	2021.11.26	01:33:04	45	inanimate/solids.jpg	false	true	left	8.977
7	2021.11.26	01:33:04	46	social/cake.jpg	true	true	left	4.223
7	2021.11.26	01:33:04	47	social/vanilla.jpg	false	true	left	6.741
7	2021.11.26	01:33:04	48	inanimate/pillow.jpg	true	true	right	7.856
7	2021.11.26	01:33:04	49	inanimate/inhabited.jpg	true	true	right	4.717
7	2021.11.26	01:33:04	50	social/observational.jpg	false	true	right	6.74
7	2021.11.26	01:33:04	51	inanimate/lifts.jpg	true	true	right	9.221
7	2021.11.26	01:33:04	52	social/restraint.jpg	true	true	right	5.91
7	2021.11.26	01:33:04	53	social/diamonds.jpg	false	true	right	10.74
7	2021.11.26	01:33:04	54	social/enlightened.jpg	true	true	right	7.39
7	2021.11.26	01:33:04	55	social/drummers.jpg	true	true	right	11.966
7	2021.11.26	01:33:04	56	inanimate/icelandic.jpg	true	true	right	7.122
7	2021.11.26	01:33:04	57	social/trails.jpg	false	true	left	8.308
7	2021.11.26	01:33:04	58	social/veranda.jpg	true	true	left	4.106
7	2021.11.26	01:33:04	59	social/vocals.jpg	false	true	right	3.583
7	2021.11.26	01:33:04	60	inanimate/wiry.jpg	true	true	right	4.817
7	2021.11.26	01:33:04	61	social/pillow.jpg	true	true	left	15.01
7	2021.11.26	01:33:04	62	social/resigned.jpg	true	true	left	4.638
7	2021.11.26	01:33:04	63	inanimate/trails.jpg	false	true	right	8.713
7	2021.11.26	01:33:04	64	inanimate/fragrant.jpg	false	true	left	13.029
7	2021.11.26	01:33:04	65	inanimate/departmental.jpg	false	true	right	7.245
7	2021.11.26	01:33:04	66	social/retrial.jpg	false	true	right	6.289
7	2021.11.26	01:33:04	67	inanimate/altars.jpg	false	true	right	20.224
7	2021.11.26	01:33:04	68	inanimate/car.jpg	false	true	left	24.748
7	2021.11.26	01:33:04	69	inanimate/restraint.jpg	true	true	left	6.155
7	2021.11.26	01:33:04	70	inanimate/wanderer.jpg	true	true	left	4.019
7	2021.11.26	01:33:04	71	social/lager.jpg	false	true	left	10.248
7	2021.11.26	01:33:04	72	inanimate/allotments.jpg	false	true	right	10.843
7	2021.11.26	01:33:04	73	inanimate/eroding.jpg	false	true	right	3.362
7	2021.11.26	01:33:04	74	inanimate/saloon.jpg	false	true	right	9.005
7	2021.11.26	01:33:04	75	social/desert.jpg	true	true	right	8.584
7	2021.11.26	01:33:04	76	inanimate/droning.jpg	true	true	right	3.573
7	2021.11.26	01:33:04	77	social/manufacturing.jpg	false	true	left	4.299
7	2021.11.26	01:33:04	78	inanimate/ethnic.jpg	false	true	right	7.136
7	2021.11.26	01:33:04	79	social/simulators.jpg	true	true	left	5.896
7	2021.11.26	01:33:04	80	inanimate/mastering.jpg	true	true	right	8.409
7	2021.11.26	01:33:04	81	social/castor.jpg	true	true	left	3.768
7	2021.11.26	01:33:04	82	social/international.jpg	true	true	right	4.343
7	2021.11.26	01:33:04	83	inanimate/water.jpg	true	true	left	3.888
7	2021.11.26	01:33:04	84	social/wanderer.jpg	true	true	left	9.277
7	2021.11.26	01:33:04	85	social/cramming.jpg	false	true	left	3.19
7	2021.11.26	01:33:04	86	social/receptions.jpg	true	true	left	4.964
7	2021.11.26	01:33:04	87	inanimate/wharf.jpg	false	true	right	7.98
7	2021.11.26	01:33:04	88	inanimate/diamonds.jpg	false	true	right	3.098
7	2021.11.26	01:33:04	89	inanimate/clambering.jpg	false	true	right	5.939
7	2021.11.26	01:33:04	90	inanimate/suction.jpg	false	true	left	7.158
7	2021.11.26	01:33:04	91	social/nicotine.jpg	false	true	right	8.172
7	2021.11.26	01:33:04	92	social/lifts.jpg	true	true	left	14.229
7	2021.11.26	01:33:04	93	inanimate/living.jpg	true	true	right	7.37
7	2021.11.26	01:33:04	94	social/allotments.jpg	false	true	left	2.626
7	2021.11.26	01:33:04	95	social/stagecoach.jpg	true	true	left	12.412
7	2021.11.26	01:33:04	96	social/wave.jpg	false	true	right	15.878
7	2021.11.26	01:33:04	97	social/solids.jpg	false	true	left	6.063
7	2021.11.26	01:33:04	98	inanimate/deteriorating.jpg	true	true	right	9.076
7	2021.11.26	01:33:04	99	social/jews.jpg	true	true	right	8.198
7	2021.11.26	01:33:04	100	inanimate/irretrievably.jpg	true	true	left	7.082
7	2021.11.26	01:33:04	101	inanimate/contractor.jpg	false	true	right	1.988
7	2021.11.26	01:33:04	102	inanimate/lager.jpg	false	true	left	4.357
7	2021.11.26	01:33:04	103	inanimate/jews.jpg	true	true	left	6.603
7	2021.11.26	01:33:04	104	inanimate/closely.jpg	true	true	right	6.942
7	2021.11.26	01:33:04	105	social/discoloured.jpg	true	true	right	4.542
7	2021.11.26	01:33:04	106	social/depressing.jpg	false	true	right	3.685
7	2021.11.26	01:33:04	107	inanimate/russet.jpg	false	true	right	2.883
7	2021.11.26	01:33:04	108	social/budding.jpg	true	true	right	2.486
7	2021.11.26	01:33:04	109	inanimate/tides.jpg	true	true	left	2.036
7	2021.11.26	01:33:04	110	inanimate/vocals.jpg	false	true	left	2.431
7	2021.11.26	01:33:04	111	inanimate/graduated.jpg	true	true	left	7.859
7	2021.11.26	01:33:04	112	inanimate/castor.jpg	true	true	right	11.477
7	2021.11.26	01:33:04	113	inanimate/observational.jpg	false	true	right	3.46
7	2021.11.26	01:33:04	114	social/uneven.jpg	false	true	left	7.065
7	2021.11.26	01:33:04	115	inanimate/smallholders.jpg	false	true	left	7.412
7	2021.11.26	01:33:04	116	inanimate/chopping.jpg	true	true	left	8.807
7	2021.11.26	01:33:04	117	social/tides.jpg	true	true	right	5.569
7	2021.11.26	01:33:04	118	inanimate/burials.jpg	true	true	left	11.608
7	2021.11.26	01:33:04	119	social/undercarriage.jpg	false	true	right	7.438
7	2021.11.26	01:33:04	120	social/altars.jpg	false	true	right	5.57
7	2021.11.26	01:33:04	121	inanimate/simulators.jpg	true	true	left	10.305
7	2021.11.26	01:33:04	122	inanimate/resigned.jpg	true	true	right	6.846
7	2021.11.26	01:33:04	123	inanimate/undercarriage.jpg	false	true	right	10.733
7	2021.11.26	01:33:04	124	social/detecting.jpg	false	true	right	3.102
7	2021.11.26	01:33:04	125	inanimate/depressing.jpg	false	true	left	4.964
7	2021.11.26	01:33:04	126	social/chopping.jpg	true	true	right	2.681
7	2021.11.26	01:33:04	127	social/aristocracy.jpg	true	true	right	2.404
7	2021.11.26	01:33:04	128	inanimate/cake.jpg	true	true	left	3.633
7	2021.11.26	01:33:04	129	inanimate/wave.jpg	false	true	right	2.406
7	2021.11.26	01:33:04	130	inanimate/budding.jpg	true	true	right	1.565
7	2021.11.26	01:33:04	131	social/fragrant.jpg	false	true	left	5.499
7	2021.11.26	01:33:04	132	social/runaway.jpg	true	true	left	8.149
7	2021.11.26	01:33:04	133	social/inmates.jpg	false	true	left	6.292
7	2021.11.26	01:33:04	134	inanimate/buses.jpg	false	true	right	6.223
7	2021.11.26	01:33:04	135	social/infected.jpg	false	true	left	4.045
7	2021.11.26	01:33:04	136	social/gentle.jpg	true	true	right	7.84
7	2021.11.26	01:33:04	137	inanimate/cramming.jpg	false	true	right	2.151
7	2021.11.26	01:33:04	138	inanimate/enlightened.jpg	true	true	right	4.165
7	2021.11.26	01:33:04	139	inanimate/uneven.jpg	false	true	left	2.178
7	2021.11.26	01:33:04	140	social/mustered.jpg	true	true	right	2.936
7	2021.11.26	01:33:04	141	social/departmental.jpg	false	true	left	2.722
7	2021.11.26	01:33:04	142	inanimate/runaway.jpg	true	true	left	2.235
7	2021.11.26	01:33:04	143	inanimate/vanilla.jpg	false	true	left	1.173
7	2021.11.26	01:33:04	144	inanimate/international.jpg	true	true	right	3.827
7	2021.11.26	01:33:04	145	inanimate/glittering.jpg	false	true	left	2.683
7	2021.11.26	01:33:04	146	social/water.jpg	true	true	left	4.524
7	2021.11.26	01:33:04	147	social/fountain.jpg	false	true	right	4.075
7	2021.11.26	01:33:04	148	social/wear.jpg	true	true	right	3.135
7	2021.11.26	01:33:04	149	social/inhabited.jpg	true	true	right	8.141
7	2021.11.26	01:33:04	150	social/suction.jpg	false	true	left	4.495
7	2021.11.26	01:33:04	151	inanimate/desert.jpg	true	true	left	1.958
7	2021.11.26	01:33:04	152	social/smallholders.jpg	false	true	left	3.948
7	2021.11.26	01:33:04	153	inanimate/inmates.jpg	false	true	right	1.879
7	2021.11.26	01:33:04	154	inanimate/mustered.jpg	true	true	right	3.148
7	2021.11.26	01:33:04	155	inanimate/aristocracy.jpg	true	true	right	1.418
7	2021.11.26	01:33:04	156	inanimate/wear.jpg	true	true	left	2.845
num	date	subjStartTime	trialNum	stimName	flipLeft	inView	response	rt
8	2021.11.26	02:19:50	1	inanimate/fragrant.jpg	false	true	left	3.119
8	2021.11.26	02:19:50	2	inanimate/desert.jpg	true	true	left	3.066
8	2021.11.26	02:19:50	3	inanimate/smallholders.jpg	false	true	left	4.857
8	2021.11.26	02:19:50	4	social/aristocracy.jpg	false	true	left	4.087
8	2021.11.26	02:19:50	5	inanimate/discoloured.jpg	false	true	left	5.815
8	2021.11.26	02:19:50	6	social/simulators.jpg	true	true	right	6.073
8	2021.11.26	02:19:50	7	social/desert.jpg	true	true	left	2.753
8	2021.11.26	02:19:50	8	inanimate/glittering.jpg	false	true	left	2.191
8	2021.11.26	02:19:50	9	social/tides.jpg	false	true	left	2.916
8	2021.11.26	02:19:50	10	inanimate/irretrievably.jpg	true	true	left	3.324
8	2021.11.26	02:19:50	11	inanimate/car.jpg	false	true	left	2.526
8	2021.11.26	02:19:50	12	social/detecting.jpg	true	true	right	1.823
8	2021.11.26	02:19:50	13	inanimate/closely.jpg	true	true	right	3.933
8	2021.11.26	02:19:50	14	inanimate/inmates.jpg	true	true	right	2.263
8	2021.11.26	02:19:50	15	social/aprons.jpg	true	true	left	1.778
8	2021.11.26	02:19:50	16	social/whistle.jpg	false	true	right	2.149
8	2021.11.26	02:19:50	17	inanimate/graduated.jpg	true	true	right	2.204
8	2021.11.26	02:19:50	18	social/inhabited.jpg	true	true	left	1.619
8	2021.11.26	02:19:50	19	social/nicotine.jpg	true	true	left	1.689
8	2021.11.26	02:19:50	20	inanimate/chopping.jpg	false	true	left	1.527
8	2021.11.26	02:19:50	21	social/lifts.jpg	false	true	left	3.571
8	2021.11.26	02:19:50	22	inanimate/altars.jpg	true	true	left	1.846
8	2021.11.26	02:19:50	23	social/water.jpg	false	true	left	2.72
8	2021.11.26	02:19:50	24	inanimate/straw.jpg	false	true	left	1.514
8	2021.11.26	02:19:50	25	social/drummers.jpg	true	true	left	2.387
8	2021.11.26	02:19:50	26	inanimate/allotments.jpg	false	true	left	1.803
8	2021.11.26	02:19:50	27	social/trails.jpg	true	true	left	2.538
8	2021.11.26	02:19:50	28	inanimate/detecting.jpg	true	true	right	1.677
8	2021.11.26	02:19:50	29	inanimate/international.jpg	true	true	left	2.214
8	2021.11.26	02:19:50	30	social/mustered.jpg	true	true	right	1.354
8	2021.11.26	02:19:50	31	inanimate/nicotine.jpg	true	true	left	2.025
8	2021.11.26	02:19:50	32	social/projecting.jpg	false	true	left	1.558
8	2021.11.26	02:19:50	33	social/castor.jpg	true	true	left	2.049
8	2021.11.26	02:19:50	34	social/fattening.jpg	true	true	left	1.411
8	2021.11.26	02:19:50	35	social/icelandic.jpg	false	true	left	1.791
8	2021.11.26	02:19:50	36	social/glittering.jpg	false	true	left	1.443
8	2021.11.26	02:19:50	37	social/wanderer.jpg	true	true	left	1.766
8	2021.11.26	02:19:50	38	inanimate/observational.jpg	true	true	right	1.112
8	2021.11.26	02:19:50	39	social/mastering.jpg	true	true	right	2.181
8	2021.11.26	02:19:50	40	inanimate/simulators.jpg	true	true	left	1.245
8	2021.11.26	02:19:50	41	inanimate/drummers.jpg	true	true	left	1.237
8	2021.11.26	02:19:50	42	inanimate/runaway.jpg	true	true	left	0.856
8	2021.11.26	02:19:50	43	social/living.jpg	true	true	right	2.167
8	2021.11.26	02:19:50	44	inanimate/cramming.jpg	false	true	left	1.079
8	2021.11.26	02:19:50	45	inanimate/whistle.jpg	false	true	left	0.824
8	2021.11.26	02:19:50	46	inanimate/tides.jpg	false	true	left	0.914
8	2021.11.26	02:19:50	47	social/runaway.jpg	true	true	left	1.409
8	2021.11.26	02:19:50	48	social/fountain.jpg	false	true	left	1.19
8	2021.11.26	02:19:50	49	inanimate/vanilla.jpg	false	true	left	0.812
8	2021.11.26	02:19:50	50	social/wiry.jpg	true	true	left	1.373
8	2021.11.26	02:19:50	51	inanimate/wear.jpg	true	true	left	1.721
8	2021.11.26	02:19:50	52	inanimate/stagecoach.jpg	true	true	right	1.869
8	2021.11.26	02:19:50	53	inanimate/gentle.jpg	false	true	left	1.676
8	2021.11.26	02:19:50	54	social/budding.jpg	false	true	left	1.169
8	2021.11.26	02:19:50	55	inanimate/restraint.jpg	false	true	right	2.096
8	2021.11.26	02:19:50	56	inanimate/inhabited.jpg	true	true	left	1.701
8	2021.11.26	02:19:50	57	inanimate/droning.jpg	true	true	left	2.108
8	2021.11.26	02:19:50	58	social/buses.jpg	false	true	right	1.704
8	2021.11.26	02:19:50	59	social/inmates.jpg	true	true	left	1.877
8	2021.11.26	02:19:50	60	social/wharf.jpg	false	true	left	1.613
8	2021.11.26	02:19:50	61	social/knitters.jpg	false	true	left	1.238
8	2021.11.26	02:19:50	62	inanimate/saloon.jpg	true	true	right	1.419
8	2021.11.26	02:19:50	63	inanimate/cake.jpg	false	true	left	1.299
8	2021.11.26	02:19:50	64	inanimate/fountain.jpg	false	true	left	2.197
8	2021.11.26	02:19:50	65	inanimate/clambering.jpg	false	true	right	1.282
8	2021.11.26	02:19:50	66	inanimate/undercarriage.jpg	true	true	right	1.266
8	2021.11.26	02:19:50	67	social/receptions.jpg	false	true	left	1.476
8	2021.11.26	02:19:50	68	inanimate/water.jpg	false	true	left	2.315
8	2021.11.26	02:19:50	69	social/stagecoach.jpg	true	true	left	2.538
8	2021.11.26	02:19:50	70	inanimate/living.jpg	true	true	right	1.267
8	2021.11.26	02:19:50	71	social/clambering.jpg	false	true	left	1.219
8	2021.11.26	02:19:50	72	inanimate/receptions.jpg	false	true	right	1.18
8	2021.11.26	02:19:50	73	social/chopping.jpg	false	true	left	1.992
8	2021.11.26	02:19:50	74	social/manufacturing.jpg	true	true	left	1.29
8	2021.11.26	02:19:50	75	social/contractor.jpg	false	true	left	1.135
8	2021.11.26	02:19:50	76	inanimate/ethnic.jpg	false	true	right	1.565
8	2021.11.26	02:19:50	77	inanimate/fattening.jpg	true	true	right	1.133
8	2021.11.26	02:19:50	78	social/jews.jpg	false	true	left	3.272
8	2021.11.26	02:19:50	79	social/retrial.jpg	false	true	left	1.778
8	2021.11.26	02:19:50	80	social/saloon.jpg	true	true	left	1.429
8	2021.11.26	02:19:50	81	social/enlightened.jpg	true	true	right	1.439
8	2021.11.26	02:19:50	82	inanimate/wharf.jpg	false	true	left	0.977
8	2021.11.26	02:19:50	83	social/graduated.jpg	true	true	right	0.913
8	2021.11.26	02:19:50	84	social/diamonds.jpg	false	true	left	1.64
8	2021.11.26	02:19:50	85	social/veranda.jpg	false	true	left	1.559
8	2021.11.26	02:19:50	86	social/irretrievably.jpg	true	true	left	2.331
8	2021.11.26	02:19:50	87	inanimate/solids.jpg	true	true	left	1.202
8	2021.11.26	02:19:50	88	inanimate/resigned.jpg	false	true	left	1.261
8	2021.11.26	02:19:50	89	inanimate/mustered.jpg	true	true	left	1.41
8	2021.11.26	02:19:50	90	inanimate/lifts.jpg	false	true	right	1.485
8	2021.11.26	02:19:50	91	social/ethnic.jpg	false	true	left	1.183
8	2021.11.26	02:19:50	92	social/resigned.jpg	false	true	left	1.391
8	2021.11.26	02:19:50	93	inanimate/budding.jpg	false	true	right	1.323
8	2021.11.26	02:19:50	94	inanimate/trails.jpg	true	true	left	1.009
8	2021.11.26	02:19:50	95	social/vanilla.jpg	false	true	right	1.04
8	2021.11.26	02:19:50	96	social/pillow.jpg	false	true	left	0.999
8	2021.11.26	02:19:50	97	inanimate/aprons.jpg	true	true	right	0.897
8	2021.11.26	02:19:50	98	inanimate/wave.jpg	true	true	left	0.79
8	2021.11.26	02:19:50	99	inanimate/mastering.jpg	true	true	left	0.845
8	2021.11.26	02:19:50	100	social/burials.jpg	true	true	left	1.703
8	2021.11.26	02:19:50	101	social/observational.jpg	true	true	left	1.144
8	2021.11.26	02:19:50	102	inanimate/wiry.jpg	true	true	left	0.79
8	2021.11.26	02:19:50	103	social/restraint.jpg	false	true	left	1.9
8	2021.11.26	02:19:50	104	inanimate/russet.jpg	true	true	left	0.93
8	2021.11.26	02:19:50	105	social/car.jpg	false	true	left	0.934
8	2021.11.26	02:19:50	106	inanimate/contractor.jpg	false	true	left	0.98
8	2021.11.26	02:19:50	107	social/suction.jpg	true	true	left	1.34
8	2021.11.26	02:19:50	108	social/departmental.jpg	false	true	left	1.055
8	2021.11.26	02:19:50	109	social/undercarriage.jpg	true	true	left	0.834
8	2021.11.26	02:19:50	110	inanimate/vocals.jpg	true	true	left	1.481
8	2021.11.26	02:19:50	111	inanimate/projecting.jpg	false	true	left	0.967
8	2021.11.26	02:19:50	112	inanimate/buses.jpg	false	true	right	1.309
8	2021.11.26	02:19:50	113	inanimate/deteriorating.jpg	false	true	left	0.707
8	2021.11.26	02:19:50	114	inanimate/jews.jpg	false	true	left	0.816
8	2021.11.26	02:19:50	115	inanimate/icelandic.jpg	false	true	left	0.938
8	2021.11.26	02:19:50	116	social/deteriorating.jpg	false	true	right	1.089
8	2021.11.26	02:19:50	117	social/cramming.jpg	false	true	left	1.509
8	2021.11.26	02:19:50	118	social/gentle.jpg	false	true	left	1.493
8	2021.11.26	02:19:50	119	social/allotments.jpg	false	true	left	1.483
8	2021.11.26	02:19:50	120	social/depressing.jpg	true	true	right	1.579
8	2021.11.26	02:19:50	121	inanimate/departmental.jpg	false	true	right	1.574
8	2021.11.26	02:19:50	122	social/altars.jpg	true	true	right	2.274
8	2021.11.26	02:19:50	123	social/vocals.jpg	true	true	left	2.472
8	2021.11.26	02:19:50	124	social/solids.jpg	true	true	left	1.19
8	2021.11.26	02:19:50	125	social/discoloured.jpg	false	true	left	1.556
8	2021.11.26	02:19:50	126	inanimate/diamonds.jpg	false	true	left	0.985
8	2021.11.26	02:19:50	127	inanimate/manufacturing.jpg	true	true	right	0.861
8	2021.11.26	02:19:50	128	inanimate/knitters.jpg	false	true	left	1.017
8	2021.11.26	02:19:50	129	social/international.jpg	true	true	left	0.915
8	2021.11.26	02:19:50	130	social/straw.jpg	false	true	right	1.484
8	2021.11.26	02:19:50	131	inanimate/wanderer.jpg	true	true	left	1.993
8	2021.11.26	02:19:50	132	inanimate/suction.jpg	true	true	left	1.335
8	2021.11.26	02:19:50	133	social/wave.jpg	true	true	right	1.086
8	2021.11.26	02:19:50	134	inanimate/burials.jpg	true	true	left	1.007
8	2021.11.26	02:19:50	135	inanimate/uneven.jpg	true	true	left	0.958
8	2021.11.26	02:19:50	136	inanimate/veranda.jpg	false	true	right	2.319
8	2021.11.26	02:19:50	137	social/infected.jpg	false	true	right	1.052
8	2021.11.26	02:19:50	138	social/smallholders.jpg	false	true	left	0.882
8	2021.11.26	02:19:50	139	social/cake.jpg	false	true	right	0.889
8	2021.11.26	02:19:50	140	social/wear.jpg	true	true	right	1.476
8	2021.11.26	02:19:50	141	inanimate/depressing.jpg	true	true	right	1.258
8	2021.11.26	02:19:50	142	social/russet.jpg	true	true	left	1.348
8	2021.11.26	02:19:50	143	social/eroding.jpg	false	true	right	1.316
8	2021.11.26	02:19:50	144	inanimate/pillow.jpg	false	true	right	1.146
8	2021.11.26	02:19:50	145	social/fragrant.jpg	false	true	left	0.83
8	2021.11.26	02:19:50	146	inanimate/castor.jpg	true	true	right	0.875
8	2021.11.26	02:19:50	147	inanimate/eroding.jpg	false	true	left	0.685
8	2021.11.26	02:19:50	148	inanimate/aristocracy.jpg	false	true	right	0.631
8	2021.11.26	02:19:50	149	social/lager.jpg	true	true	right	0.744
8	2021.11.26	02:19:50	150	social/uneven.jpg	true	true	right	0.931
8	2021.11.26	02:19:50	151	social/closely.jpg	true	true	right	1.485
8	2021.11.26	02:19:50	152	inanimate/retrial.jpg	false	true	left	0.781
8	2021.11.26	02:19:50	153	social/droning.jpg	true	true	right	0.813
8	2021.11.26	02:19:50	154	inanimate/lager.jpg	true	true	right	0.865
8	2021.11.26	02:19:50	155	inanimate/enlightened.jpg	true	true	right	0.873
8	2021.11.26	02:19:50	156	inanimate/infected.jpg	false	true	left	1.509
num	date	subjStartTime	trialNum	stimName	flipLeft	inView	response	rt
9	2021.11.26	02:36:40	1	social/wiry.jpg	true	true	left	9.556
9	2021.11.26	02:36:40	2	social/irretrievably.jpg	true	true	left	19.957
9	2021.11.26	02:36:40	3	social/trails.jpg	false	true	right	2.027
9	2021.11.26	02:36:40	4	social/solids.jpg	false	true	right	2.212
9	2021.11.26	02:36:40	5	social/vanilla.jpg	false	true	left	1.682
9	2021.11.26	02:36:40	6	social/undercarriage.jpg	false	true	left	2.11
9	2021.11.26	02:36:40	7	inanimate/inmates.jpg	false	true	left	3.14
9	2021.11.26	02:36:40	8	social/russet.jpg	true	true	right	1.784
9	2021.11.26	02:36:40	9	social/diamonds.jpg	false	true	right	4.236
9	2021.11.26	02:36:40	10	social/mastering.jpg	false	true	right	4.712
9	2021.11.26	02:36:40	11	inanimate/wharf.jpg	false	true	right	15.937
9	2021.11.26	02:36:40	12	inanimate/eroding.jpg	false	true	right	2.119
9	2021.11.26	02:36:40	13	social/depressing.jpg	true	true	right	8.355
9	2021.11.26	02:36:40	14	inanimate/departmental.jpg	true	true	left	4.949
9	2021.11.26	02:36:40	15	social/retrial.jpg	false	true	left	2.742
9	2021.11.26	02:36:40	16	social/cramming.jpg	false	true	right	9.884
9	2021.11.26	02:36:40	17	inanimate/glittering.jpg	true	true	left	6.749
9	2021.11.26	02:36:40	18	inanimate/contractor.jpg	false	true	right	2.089
9	2021.11.26	02:36:40	19	inanimate/irretrievably.jpg	true	true	left	1.155
9	2021.11.26	02:36:40	20	inanimate/closely.jpg	false	true	left	3.931
9	2021.11.26	02:36:40	21	inanimate/smallholders.jpg	true	true	right	1.288
9	2021.11.26	02:36:40	22	social/ethnic.jpg	false	true	left	6.168
9	2021.11.26	02:36:40	23	inanimate/diamonds.jpg	false	true	left	1.346
9	2021.11.26	02:36:40	24	inanimate/living.jpg	false	true	left	1.878
9	2021.11.26	02:36:40	25	social/tides.jpg	false	true	right	1.249
9	2021.11.26	02:36:40	26	inanimate/clambering.jpg	true	true	left	0.834
9	2021.11.26	02:36:40	27	social/icelandic.jpg	true	true	right	1.3
9	2021.11.26	02:36:40	28	social/pillow.jpg	true	true	right	3.03
9	2021.11.26	02:36:40	29	social/runaway.jpg	false	true	right	1.095
9	2021.11.26	02:36:40	30	inanimate/car.jpg	true	true	right	5.281
9	2021.11.26	02:36:40	31	inanimate/straw.jpg	true	true	right	2.076
9	2021.11.26	02:36:40	32	inanimate/lifts.jpg	false	true	left	1.985
9	2021.11.26	02:36:40	33	social/vocals.jpg	false	true	left	4.888
9	2021.11.26	02:36:40	34	inanimate/enlightened.jpg	true	true	left	2.7
9	2021.11.26	02:36:40	35	inanimate/veranda.jpg	true	true	right	1.578
9	2021.11.26	02:36:40	36	social/altars.jpg	false	true	right	1.124
9	2021.11.26	02:36:40	37	inanimate/manufacturing.jpg	false	true	right	0.839
9	2021.11.26	02:36:40	38	social/gentle.jpg	false	true	left	1.062
9	2021.11.26	02:36:40	39	inanimate/budding.jpg	true	true	right	0.519
9	2021.11.26	02:36:40	40	inanimate/solids.jpg	false	true	left	0.797
9	2021.11.26	02:36:40	41	social/restraint.jpg	true	true	right	1.065
9	2021.11.26	02:36:40	42	social/lifts.jpg	false	true	right	0.663
9	2021.11.26	02:36:40	43	social/inhabited.jpg	false	true	right	0.621
9	2021.11.26	02:36:40	44	social/allotments.jpg	false	true	right	0.638
9	2021.11.26	02:36:40	45	inanimate/retrial.jpg	false	true	right	0.589
9	2021.11.26	02:36:40	46	social/drummers.jpg	false	true	right	0.416
9	2021.11.26	02:36:40	47	social/car.jpg	true	true	right	0.365
9	2021.11.26	02:36:40	48	inanimate/ethnic.jpg	false	true	right	0.37
9	2021.11.26	02:36:40	49	inanimate/burials.jpg	true	true	right	0.35
9	2021.11.26	02:36:40	50	inanimate/whistle.jpg	true	true	right	0.329
9	2021.11.26	02:36:40	51	inanimate/vanilla.jpg	false	true	right	0.383
9	2021.11.26	02:36:40	52	social/detecting.jpg	true	true	right	0.311
9	2021.11.26	02:36:40	53	social/nicotine.jpg	false	true	left	1.005
9	2021.11.26	02:36:40	54	social/observational.jpg	true	true	right	0.608
9	2021.11.26	02:36:40	55	social/departmental.jpg	true	true	left	0.555
9	2021.11.26	02:36:40	56	social/wear.jpg	true	true	left	0.399
9	2021.11.26	02:36:40	57	social/uneven.jpg	false	true	left	2.389
9	2021.11.26	02:36:40	58	social/aristocracy.jpg	true	true	left	0.79
9	2021.11.26	02:36:40	59	social/water.jpg	false	true	left	1.155
9	2021.11.26	02:36:40	60	inanimate/saloon.jpg	true	true	left	0.415
9	2021.11.26	02:36:40	61	social/whistle.jpg	true	true	right	1.868
9	2021.11.26	02:36:40	62	social/infected.jpg	false	true	right	0.796
9	2021.11.26	02:36:40	63	social/suction.jpg	true	true	left	1.504
9	2021.11.26	02:36:40	64	social/jews.jpg	false	true	left	0.729
9	2021.11.26	02:36:40	65	social/droning.jpg	true	true	left	0.566
9	2021.11.26	02:36:40	66	inanimate/jews.jpg	false	true	left	0.311
9	2021.11.26	02:36:40	67	inanimate/tides.jpg	false	true	left	0.215
9	2021.11.26	02:36:40	68	social/deteriorating.jpg	true	true	left	0.151
9	2021.11.26	02:36:40	69	inanimate/fountain.jpg	true	true	left	0.161
9	2021.11.26	02:36:40	70	inanimate/aristocracy.jpg	true	true	left	0.152
9	2021.11.26	02:36:40	71	social/stagecoach.jpg	true	true	left	0.214
9	2021.11.26	02:36:40	72	social/projecting.jpg	true	true	left	0.182
9	2021.11.26	02:36:40	73	social/contractor.jpg	false	true	left	0.195
9	2021.11.26	02:36:40	74	inanimate/icelandic.jpg	true	true	left	0.142
9	2021.11.26	02:36:40	75	social/simulators.jpg	false	true	left	0.162
9	2021.11.26	02:36:40	76	inanimate/droning.jpg	true	true	left	0.112
9	2021.11.26	02:36:40	77	inanimate/wiry.jpg	true	true	right	0.454
9	2021.11.26	02:36:40	78	inanimate/gentle.jpg	false	true	right	0.31
9	2021.11.26	02:36:40	79	inanimate/depressing.jpg	true	true	right	0.195
9	2021.11.26	02:36:40	80	inanimate/vocals.jpg	false	true	left	0.25
9	2021.11.26	02:36:40	81	social/fattening.jpg	true	true	right	0.331
9	2021.11.26	02:36:40	82	social/saloon.jpg	true	true	left	0.312
9	2021.11.26	02:36:40	83	social/eroding.jpg	false	true	right	0.248
9	2021.11.26	02:36:40	84	inanimate/pillow.jpg	true	true	left	0.263
9	2021.11.26	02:36:40	85	inanimate/inhabited.jpg	false	true	left	0.487
9	2021.11.26	02:36:40	86	inanimate/drummers.jpg	false	true	left	0.201
9	2021.11.26	02:36:40	87	social/discoloured.jpg	false	true	left	0.136
9	2021.11.26	02:36:40	88	social/enlightened.jpg	true	true	right	0.216
9	2021.11.26	02:36:40	89	inanimate/mustered.jpg	true	true	right	0.272
9	2021.11.26	02:36:40	90	social/resigned.jpg	false	true	right	0.15
9	2021.11.26	02:36:40	91	inanimate/chopping.jpg	false	true	right	0.139
9	2021.11.26	02:36:40	92	social/lager.jpg	false	true	right	0.184
9	2021.11.26	02:36:40	93	social/budding.jpg	true	true	left	0.221
9	2021.11.26	02:36:40	94	inanimate/desert.jpg	true	true	left	0.879
9	2021.11.26	02:36:40	95	inanimate/deteriorating.jpg	true	true	right	0.534
9	2021.11.26	02:36:40	96	social/burials.jpg	true	true	right	0.32
9	2021.11.26	02:36:40	97	inanimate/wear.jpg	true	true	right	0.4
9	2021.11.26	02:36:40	98	inanimate/mastering.jpg	false	true	left	0.328
9	2021.11.26	02:36:40	99	inanimate/cramming.jpg	false	true	right	1.164
9	2021.11.26	02:36:40	100	social/inmates.jpg	false	true	left	0.36
9	2021.11.26	02:36:40	101	inanimate/altars.jpg	false	true	right	0.343
9	2021.11.26	02:36:40	102	inanimate/trails.jpg	false	true	left	0.353
9	2021.11.26	02:36:40	103	inanimate/receptions.jpg	true	true	right	0.158
9	2021.11.26	02:36:40	104	inanimate/undercarriage.jpg	false	true	left	0.167
9	2021.11.26	02:36:40	105	inanimate/allotments.jpg	false	true	left	0.43
9	2021.11.26	02:36:40	106	social/graduated.jpg	false	true	right	0.423
9	2021.11.26	02:36:40	107	social/manufacturing.jpg	false	true	right	0.288
9	2021.11.26	02:36:40	108	social/smallholders.jpg	true	true	right	0.661
9	2021.11.26	02:36:40	109	social/international.jpg	true	true	left	0.337
9	2021.11.26	02:36:40	110	inanimate/fragrant.jpg	false	true	right	0.215
9	2021.11.26	02:36:40	111	social/wanderer.jpg	false	true	left	0.398
9	2021.11.26	02:36:40	112	social/straw.jpg	true	true	left	0.21
9	2021.11.26	02:36:40	113	inanimate/infected.jpg	false	true	left	0.199
9	2021.11.26	02:36:40	114	social/castor.jpg	true	true	right	0.225
9	2021.11.26	02:36:40	115	inanimate/wanderer.jpg	false	true	left	0.11
9	2021.11.26	02:36:40	116	social/desert.jpg	true	true	right	0.391
9	2021.11.26	02:36:40	117	social/closely.jpg	false	true	right	0.257
9	2021.11.26	02:36:40	118	social/veranda.jpg	true	true	left	0.336
9	2021.11.26	02:36:40	119	inanimate/aprons.jpg	true	true	left	0.302
9	2021.11.26	02:36:40	120	social/chopping.jpg	false	true	right	0.257
9	2021.11.26	02:36:40	121	inanimate/discoloured.jpg	false	true	left	0.441
9	2021.11.26	02:36:40	122	social/knitters.jpg	true	true	right	0.171
9	2021.11.26	02:36:40	123	social/wave.jpg	true	true	left	0.176
9	2021.11.26	02:36:40	124	inanimate/lager.jpg	false	true	left	0.168
9	2021.11.26	02:36:40	125	inanimate/wave.jpg	true	true	right	0.342
9	2021.11.26	02:36:40	126	social/aprons.jpg	true	true	left	0.335
9	2021.11.26	02:36:40	127	inanimate/uneven.jpg	false	true	right	0.247
9	2021.11.26	02:36:40	128	social/receptions.jpg	true	true	right	0.407
9	2021.11.26	02:36:40	129	inanimate/suction.jpg	true	true	left	0.224
9	2021.11.26	02:36:40	130	social/mustered.jpg	true	true	left	0.358
9	2021.11.26	02:36:40	131	social/clambering.jpg	true	true	left	0.496
9	2021.11.26	02:36:40	132	inanimate/runaway.jpg	false	true	right	0.28
9	2021.11.26	02:36:40	133	inanimate/resigned.jpg	false	true	right	0.41
9	2021.11.26	02:36:40	134	inanimate/russet.jpg	true	true	right	0.383
9	2021.11.26	02:36:40	135	inanimate/castor.jpg	true	true	left	0.141
9	2021.11.26	02:36:40	136	inanimate/buses.jpg	true	true	right	0.177
9	2021.11.26	02:36:40	137	inanimate/restraint.jpg	true	true	right	0.119
9	2021.11.26	02:36:40	138	social/living.jpg	false	true	right	0.034
9	2021.11.26	02:36:40	139	social/fragrant.jpg	false	true	left	0.28
9	2021.11.26	02:36:40	140	social/wharf.jpg	false	true	left	0.326
9	2021.11.26	02:36:40	141	inanimate/water.jpg	false	true	right	0.44
9	2021.11.26	02:36:40	142	social/glittering.jpg	true	true	right	0.16
9	2021.11.26	02:36:40	143	inanimate/detecting.jpg	true	true	right	0.231
9	2021.11.26	02:36:40	144	inanimate/nicotine.jpg	false	true	right	0.152
9	2021.11.26	02:36:40	145	inanimate/knitters.jpg	true	true	right	0.103
9	2021.11.26	02:36:40	146	inanimate/cake.jpg	false	true	left	0.144
9	2021.11.26	02:36:40	147	inanimate/simulators.jpg	false	true	left	0.16
9	2021.11.26	02:36:40	148	inanimate/projecting.jpg	true	true	right	0.214
9	2021.11.26	02:36:40	149	inanimate/fattening.jpg	true	true	left	0.289
9	2021.11.26	02:36:40	150	inanimate/graduated.jpg	false	true	right	0.136
9	2021.11.26	02:36:40	151	social/cake.jpg	false	true	left	0.5
9	2021.11.26	02:36:40	152	inanimate/stagecoach.jpg	true	true	left	0.179
9	2021.11.26	02:36:40	153	inanimate/international.jpg	true	true	left	0.072
9	2021.11.26	02:36:40	154	social/buses.jpg	true	true	right	0.207
9	2021.11.26	02:36:40	155	inanimate/observational.jpg	true	true	left	0.183
9	2021.11.26	02:36:40	156	social/fountain.jpg	true	true	right	0.344
num	date	subjStartTime	trialNum	stimName	flipLeft	inView	response	rt
10	2021.11.26	04:46:58	1	social/detecting.jpg	true	true	right	2.957
10	2021.11.26	04:46:58	2	inanimate/inmates.jpg	true	true	left	1.841
10	2021.11.26	04:46:58	3	inanimate/inhabited.jpg	false	true	right	3.1
10	2021.11.26	04:46:58	4	inanimate/suction.jpg	true	true	left	3.457
10	2021.11.26	04:46:58	5	inanimate/burials.jpg	false	true	right	1.744
10	2021.11.26	04:46:58	6	inanimate/projecting.jpg	false	true	right	1.459
10	2021.11.26	04:46:58	7	social/wanderer.jpg	false	true	right	2.996
10	2021.11.26	04:46:58	8	inanimate/infected.jpg	true	true	left	4.796
10	2021.11.26	04:46:58	9	inanimate/discoloured.jpg	true	true	left	2.181
10	2021.11.26	04:46:58	10	inanimate/wanderer.jpg	false	true	right	2.797
10	2021.11.26	04:46:58	11	social/living.jpg	true	true	left	3.957
10	2021.11.26	04:46:58	12	inanimate/straw.jpg	false	true	left	1.314
10	2021.11.26	04:46:58	13	social/eroding.jpg	true	true	left	4.12
10	2021.11.26	04:46:58	14	social/gentle.jpg	false	true	left	5.243
10	2021.11.26	04:46:58	15	social/discoloured.jpg	true	true	right	6.596
10	2021.11.26	04:46:58	16	inanimate/receptions.jpg	false	true	left	4.187
10	2021.11.26	04:46:58	17	inanimate/icelandic.jpg	false	true	right	1.954
10	2021.11.26	04:46:58	18	social/car.jpg	false	true	right	2.968
10	2021.11.26	04:46:58	19	inanimate/eroding.jpg	true	true	left	1.957
10	2021.11.26	04:46:58	20	social/cramming.jpg	true	true	right	4.451
10	2021.11.26	04:46:58	21	social/irretrievably.jpg	true	true	right	4.887
10	2021.11.26	04:46:58	22	social/buses.jpg	false	true	left	4.423
10	2021.11.26	04:46:58	23	inanimate/closely.jpg	true	true	left	4.612
10	2021.11.26	04:46:58	24	inanimate/undercarriage.jpg	false	true	left	4.256
10	2021.11.26	04:46:58	25	inanimate/lifts.jpg	false	true	right	2.419
10	2021.11.26	04:46:58	26	social/manufacturing.jpg	true	true	right	1.582
10	2021.11.26	04:46:58	27	inanimate/resigned.jpg	false	true	left	3.115
10	2021.11.26	04:46:58	28	social/retrial.jpg	false	true	right	2.32
10	2021.11.26	04:46:58	29	inanimate/drummers.jpg	false	true	right	2.505
10	2021.11.26	04:46:58	30	social/jews.jpg	false	true	right	3.048
10	2021.11.26	04:46:58	31	social/lager.jpg	false	true	right	2.45
10	2021.11.26	04:46:58	32	inanimate/water.jpg	true	true	right	1.917
10	2021.11.26	04:46:58	33	inanimate/irretrievably.jpg	true	true	left	3.719
10	2021.11.26	04:46:58	34	inanimate/cramming.jpg	true	true	right	3.538
10	2021.11.26	04:46:58	35	social/receptions.jpg	false	true	left	5.054
10	2021.11.26	04:46:58	36	inanimate/droning.jpg	false	true	left	2.02
10	2021.11.26	04:46:58	37	social/mastering.jpg	true	true	right	3.373
10	2021.11.26	04:46:58	38	inanimate/uneven.jpg	true	true	left	3.079
10	2021.11.26	04:46:58	39	inanimate/castor.jpg	true	true	right	4.179
10	2021.11.26	04:46:58	40	inanimate/clambering.jpg	true	true	right	1.518
10	2021.11.26	04:46:58	41	inanimate/diamonds.jpg	true	true	right	1.144
10	2021.11.26	04:46:58	42	inanimate/detecting.jpg	true	true	right	1.777
10	2021.11.26	04:46:58	43	inanimate/allotments.jpg	true	true	left	2.403
